onset	duration	value	response	rt	good	TMSips	TMSppc	TMSvertex	a	bias	p	pv	ronda
40.7392	1	10	1568.5	1568.5	1	0	1	0	0	0	0.8	0.8	1
42.3224	1	20	n/a	n/a	1	n/a	n/a	n/a	n/a	n/a	n/a	n/a	n/a
44.2746	1	80	n/a	n/a	1	n/a	n/a	n/a	n/a	n/a	n/a	n/a	n/a
44.3746	1	80	n/a	n/a	1	n/a	n/a	n/a	n/a	n/a	n/a	n/a	n/a
44.589	1	31	n/a	n/a	1	n/a	n/a	n/a	n/a	n/a	n/a	n/a	n/a
46.6056	1	10	1574.1	1574.1	1	0	1	0	0	0	0.6	0.6	2
48.1888	1	20	n/a	n/a	1	n/a	n/a	n/a	n/a	n/a	n/a	n/a	n/a
49.4208	1	80	n/a	n/a	1	n/a	n/a	n/a	n/a	n/a	n/a	n/a	n/a
49.5208	1	80	n/a	n/a	1	n/a	n/a	n/a	n/a	n/a	n/a	n/a	n/a
49.7388	1	31	n/a	n/a	1	n/a	n/a	n/a	n/a	n/a	n/a	n/a	n/a
51.7552	1	10	1512.4	1512.4	1	0	1	0	0	0	0.9	0.9	3
53.2718	1	20	n/a	n/a	1	n/a	n/a	n/a	n/a	n/a	n/a	n/a	n/a
55.1758	1	80	n/a	n/a	1	n/a	n/a	n/a	n/a	n/a	n/a	n/a	n/a
55.2758	1	80	n/a	n/a	1	n/a	n/a	n/a	n/a	n/a	n/a	n/a	n/a
55.4884	1	31	n/a	n/a	1	n/a	n/a	n/a	n/a	n/a	n/a	n/a	n/a
57.505	1	10	1282.5	1282.5	1	0	1	0	0	0	0.4	0.4	4
58.8048	1	20	n/a	n/a	1	n/a	n/a	n/a	n/a	n/a	n/a	n/a	n/a
60.2918	1	80	n/a	n/a	1	n/a	n/a	n/a	n/a	n/a	n/a	n/a	n/a
60.3918	1	80	n/a	n/a	1	n/a	n/a	n/a	n/a	n/a	n/a	n/a	n/a
60.6048	1	30	n/a	n/a	1	n/a	n/a	n/a	n/a	n/a	n/a	n/a	n/a
62.6212	1	10	998.1	998.1	1	0	1	0	0	0	0.2	0.2	5
63.6378	1	20	n/a	n/a	1	n/a	n/a	n/a	n/a	n/a	n/a	n/a	n/a
65.5848	1	80	n/a	n/a	1	n/a	n/a	n/a	n/a	n/a	n/a	n/a	n/a
65.6848	1	80	n/a	n/a	1	n/a	n/a	n/a	n/a	n/a	n/a	n/a	n/a
65.8878	1	31	n/a	n/a	1	n/a	n/a	n/a	n/a	n/a	n/a	n/a	n/a
67.9042	1	10	802.9	802.9	1	0	1	0	0	0	0.9	0.9	6
68.721	1	20	n/a	n/a	1	n/a	n/a	n/a	n/a	n/a	n/a	n/a	n/a
70.011	1	80	n/a	n/a	1	n/a	n/a	n/a	n/a	n/a	n/a	n/a	n/a
70.111	1	80	n/a	n/a	1	n/a	n/a	n/a	n/a	n/a	n/a	n/a	n/a
70.3208	1	31	n/a	n/a	1	n/a	n/a	n/a	n/a	n/a	n/a	n/a	n/a
72.3374	1	10	1009.8	1009.8	1	0	1	0	0	0	0.2	0.2	7
73.354	1	20	n/a	n/a	1	n/a	n/a	n/a	n/a	n/a	n/a	n/a	n/a
74.522	1	80	n/a	n/a	1	n/a	n/a	n/a	n/a	n/a	n/a	n/a	n/a
74.622	1	80	n/a	n/a	1	n/a	n/a	n/a	n/a	n/a	n/a	n/a	n/a
74.8372	1	31	n/a	n/a	1	n/a	n/a	n/a	n/a	n/a	n/a	n/a	n/a
76.8538	1	10	877.3	877.3	1	0	1	0	0	0	0.7	0.7	8
77.737	1	20	n/a	n/a	1	n/a	n/a	n/a	n/a	n/a	n/a	n/a	n/a
79.395	1	80	n/a	n/a	1	n/a	n/a	n/a	n/a	n/a	n/a	n/a	n/a
79.495	1	80	n/a	n/a	1	n/a	n/a	n/a	n/a	n/a	n/a	n/a	n/a
79.7036	1	31	n/a	n/a	1	n/a	n/a	n/a	n/a	n/a	n/a	n/a	n/a
81.7202	1	10	794.8	794.8	1	0	1	0	0	0	0.8	0.8	9
82.52	1	20	n/a	n/a	1	n/a	n/a	n/a	n/a	n/a	n/a	n/a	n/a
83.681	1	80	n/a	n/a	1	n/a	n/a	n/a	n/a	n/a	n/a	n/a	n/a
83.781	1	80	n/a	n/a	1	n/a	n/a	n/a	n/a	n/a	n/a	n/a	n/a
83.9866	1	30	n/a	n/a	1	n/a	n/a	n/a	n/a	n/a	n/a	n/a	n/a
86.0032	1	10	2175.6	2175.6	1	0	1	0	0	0	0.6	0.6	10
88.1864	1	20	n/a	n/a	1	n/a	n/a	n/a	n/a	n/a	n/a	n/a	n/a
89.7544	1	80	n/a	n/a	1	n/a	n/a	n/a	n/a	n/a	n/a	n/a	n/a
89.8544	1	80	n/a	n/a	1	n/a	n/a	n/a	n/a	n/a	n/a	n/a	n/a
90.0696	1	31	n/a	n/a	1	n/a	n/a	n/a	n/a	n/a	n/a	n/a	n/a
100.1024	1	10	2924.1	2924.1	1	0	1	0	0.8	0.30847	0.7	0.7339	11
103.0356	1	20	n/a	n/a	1	n/a	n/a	n/a	n/a	n/a	n/a	n/a	n/a
104.8796	1	80	n/a	n/a	1	n/a	n/a	n/a	n/a	n/a	n/a	n/a	n/a
104.9796	1	80	n/a	n/a	1	n/a	n/a	n/a	n/a	n/a	n/a	n/a	n/a
105.1854	1	30	n/a	n/a	1	n/a	n/a	n/a	n/a	n/a	n/a	n/a	n/a
107.202	1	40	n/a	n/a	1	n/a	n/a	n/a	n/a	n/a	n/a	n/a	n/a
109.2184	1	10	1215.8	1215.8	1	0	1	0	0.8	0.70637	0.2	0.0625	12
110.4518	1	20	n/a	n/a	1	n/a	n/a	n/a	n/a	n/a	n/a	n/a	n/a
111.8368	1	80	n/a	n/a	1	n/a	n/a	n/a	n/a	n/a	n/a	n/a	n/a
111.9368	1	80	n/a	n/a	1	n/a	n/a	n/a	n/a	n/a	n/a	n/a	n/a
112.1516	1	31	n/a	n/a	1	n/a	n/a	n/a	n/a	n/a	n/a	n/a	n/a
114.1682	1	40	n/a	n/a	1	n/a	n/a	n/a	n/a	n/a	n/a	n/a	n/a
116.1848	1	10	3321.4	3321.4	1	0	1	0	0.6	0.53151	0.1	0.03125	13
119.5178	1	20	n/a	n/a	1	n/a	n/a	n/a	n/a	n/a	n/a	n/a	n/a
120.5808	1	80	n/a	n/a	1	n/a	n/a	n/a	n/a	n/a	n/a	n/a	n/a
120.6808	1	80	n/a	n/a	1	n/a	n/a	n/a	n/a	n/a	n/a	n/a	n/a
120.8844	1	31	n/a	n/a	1	n/a	n/a	n/a	n/a	n/a	n/a	n/a	n/a
122.901	1	40	n/a	n/a	1	n/a	n/a	n/a	n/a	n/a	n/a	n/a	n/a
124.9176	1	10	1868.3	1868.3	1	0	1	0	0.6	0.30228	0.6	0.45342	14
126.8008	1	20	n/a	n/a	1	n/a	n/a	n/a	n/a	n/a	n/a	n/a	n/a
128.4598	1	80	n/a	n/a	1	n/a	n/a	n/a	n/a	n/a	n/a	n/a	n/a
128.5598	1	80	n/a	n/a	1	n/a	n/a	n/a	n/a	n/a	n/a	n/a	n/a
128.7672	1	31	n/a	n/a	1	n/a	n/a	n/a	n/a	n/a	n/a	n/a	n/a
130.7838	1	40	n/a	n/a	1	n/a	n/a	n/a	n/a	n/a	n/a	n/a	n/a
132.8004	1	10	1713.3	1713.3	1	0	1	0	0.7	0.62719	0.4	0.46344	15
134.517	1	20	n/a	n/a	1	n/a	n/a	n/a	n/a	n/a	n/a	n/a	n/a
136.487	1	80	n/a	n/a	1	n/a	n/a	n/a	n/a	n/a	n/a	n/a	n/a
136.587	1	80	n/a	n/a	1	n/a	n/a	n/a	n/a	n/a	n/a	n/a	n/a
136.8002	1	30	n/a	n/a	1	n/a	n/a	n/a	n/a	n/a	n/a	n/a	n/a
138.8168	1	40	n/a	n/a	1	n/a	n/a	n/a	n/a	n/a	n/a	n/a	n/a
140.8332	1	10	3840.2	3840.2	1	0	1	0	0.4	0.87091	0.2	0.24727	16
144.683	1	20	n/a	n/a	1	n/a	n/a	n/a	n/a	n/a	n/a	n/a	n/a
146.525	1	80	n/a	n/a	1	n/a	n/a	n/a	n/a	n/a	n/a	n/a	n/a
146.625	1	80	n/a	n/a	1	n/a	n/a	n/a	n/a	n/a	n/a	n/a	n/a
146.8328	1	31	n/a	n/a	1	n/a	n/a	n/a	n/a	n/a	n/a	n/a	n/a
148.8494	1	40	n/a	n/a	1	n/a	n/a	n/a	n/a	n/a	n/a	n/a	n/a
150.866	1	10	1791.3	1791.3	1	0	1	0	0.4	0.47565	0.6	0.65043	17
152.6658	1	20	n/a	n/a	1	n/a	n/a	n/a	n/a	n/a	n/a	n/a	n/a
153.8068	1	80	n/a	n/a	1	n/a	n/a	n/a	n/a	n/a	n/a	n/a	n/a
153.9068	1	80	n/a	n/a	1	n/a	n/a	n/a	n/a	n/a	n/a	n/a	n/a
154.1158	1	30	n/a	n/a	1	n/a	n/a	n/a	n/a	n/a	n/a	n/a	n/a
156.1324	1	40	n/a	n/a	1	n/a	n/a	n/a	n/a	n/a	n/a	n/a	n/a
158.1488	1	10	2684.2	2684.2	1	0	1	0	0.5	0.090774	0.8	0.69077	18
160.8488	1	20	n/a	n/a	1	n/a	n/a	n/a	n/a	n/a	n/a	n/a	n/a
162.6038	1	80	n/a	n/a	1	n/a	n/a	n/a	n/a	n/a	n/a	n/a	n/a
162.7038	1	80	n/a	n/a	1	n/a	n/a	n/a	n/a	n/a	n/a	n/a	n/a
162.9152	1	30	n/a	n/a	1	n/a	n/a	n/a	n/a	n/a	n/a	n/a	n/a
164.9318	1	40	n/a	n/a	1	n/a	n/a	n/a	n/a	n/a	n/a	n/a	n/a
166.9484	1	10	3132.5	3132.5	1	0	1	0	0.5	0.12434	0.6	0.32434	19
170.0982	1	20	n/a	n/a	1	n/a	n/a	n/a	n/a	n/a	n/a	n/a	n/a
171.1642	1	80	n/a	n/a	1	n/a	n/a	n/a	n/a	n/a	n/a	n/a	n/a
171.2642	1	80	n/a	n/a	1	n/a	n/a	n/a	n/a	n/a	n/a	n/a	n/a
171.4814	1	31	n/a	n/a	1	n/a	n/a	n/a	n/a	n/a	n/a	n/a	n/a
173.498	1	40	n/a	n/a	1	n/a	n/a	n/a	n/a	n/a	n/a	n/a	n/a
175.5144	1	10	2822.1	2822.1	1	0	1	0	0.6	0.12154	0.9	0.93231	20
178.3476	1	20	n/a	n/a	1	n/a	n/a	n/a	n/a	n/a	n/a	n/a	n/a
179.9116	1	80	n/a	n/a	1	n/a	n/a	n/a	n/a	n/a	n/a	n/a	n/a
180.0116	1	80	n/a	n/a	1	n/a	n/a	n/a	n/a	n/a	n/a	n/a	n/a
180.2142	1	31	n/a	n/a	1	n/a	n/a	n/a	n/a	n/a	n/a	n/a	n/a
182.2308	1	40	n/a	n/a	1	n/a	n/a	n/a	n/a	n/a	n/a	n/a	n/a
192.2634	1	10	3128.8	3128.8	1	0	1	0	0	0	0.8	0.8	21
195.3966	1	20	n/a	n/a	1	n/a	n/a	n/a	n/a	n/a	n/a	n/a	n/a
196.6196	1	80	n/a	n/a	1	n/a	n/a	n/a	n/a	n/a	n/a	n/a	n/a
196.7196	1	80	n/a	n/a	1	n/a	n/a	n/a	n/a	n/a	n/a	n/a	n/a
196.9298	1	31	n/a	n/a	1	n/a	n/a	n/a	n/a	n/a	n/a	n/a	n/a
198.9464	1	10	781.8	781.8	1	0	1	0	0	0	0.2	0.2	22
199.7464	1	20	n/a	n/a	1	n/a	n/a	n/a	n/a	n/a	n/a	n/a	n/a
201.3014	1	80	n/a	n/a	1	n/a	n/a	n/a	n/a	n/a	n/a	n/a	n/a
201.4014	1	80	n/a	n/a	1	n/a	n/a	n/a	n/a	n/a	n/a	n/a	n/a
201.613	1	30	n/a	n/a	1	n/a	n/a	n/a	n/a	n/a	n/a	n/a	n/a
203.6294	1	10	1970.6	1970.6	1	0	1	0	0	0	0.5	0.5	23
205.6126	1	20	n/a	n/a	1	n/a	n/a	n/a	n/a	n/a	n/a	n/a	n/a
206.7608	1	80	n/a	n/a	1	n/a	n/a	n/a	n/a	n/a	n/a	n/a	n/a
206.8608	1	80	n/a	n/a	1	n/a	n/a	n/a	n/a	n/a	n/a	n/a	n/a
207.0626	1	31	n/a	n/a	1	n/a	n/a	n/a	n/a	n/a	n/a	n/a	n/a
209.0792	1	10	2136.7	2136.7	1	0	1	0	0	0	0.3	0.3	24
211.229	1	20	n/a	n/a	1	n/a	n/a	n/a	n/a	n/a	n/a	n/a	n/a
212.9	1	80	n/a	n/a	1	n/a	n/a	n/a	n/a	n/a	n/a	n/a	n/a
213	1	80	n/a	n/a	1	n/a	n/a	n/a	n/a	n/a	n/a	n/a	n/a
213.2122	1	30	n/a	n/a	1	n/a	n/a	n/a	n/a	n/a	n/a	n/a	n/a
215.2288	1	10	1555	1555	1	0	1	0	0	0	0.8	0.8	25
216.7954	1	20	n/a	n/a	1	n/a	n/a	n/a	n/a	n/a	n/a	n/a	n/a
218.0824	1	80	n/a	n/a	1	n/a	n/a	n/a	n/a	n/a	n/a	n/a	n/a
218.1824	1	80	n/a	n/a	1	n/a	n/a	n/a	n/a	n/a	n/a	n/a	n/a
218.3952	1	31	n/a	n/a	1	n/a	n/a	n/a	n/a	n/a	n/a	n/a	n/a
220.4118	1	10	1555.8	1555.8	1	0	1	0	0	0	0.1	0.1	26
221.9784	1	20	n/a	n/a	1	n/a	n/a	n/a	n/a	n/a	n/a	n/a	n/a
223.9294	1	80	n/a	n/a	1	n/a	n/a	n/a	n/a	n/a	n/a	n/a	n/a
224.0294	1	80	n/a	n/a	1	n/a	n/a	n/a	n/a	n/a	n/a	n/a	n/a
224.245	1	31	n/a	n/a	1	n/a	n/a	n/a	n/a	n/a	n/a	n/a	n/a
226.2614	1	10	2138.1	2138.1	1	0	1	0	0	0	0.4	0.4	27
228.4114	1	20	n/a	n/a	1	n/a	n/a	n/a	n/a	n/a	n/a	n/a	n/a
229.4794	1	80	n/a	n/a	1	n/a	n/a	n/a	n/a	n/a	n/a	n/a	n/a
229.5794	1	80	n/a	n/a	1	n/a	n/a	n/a	n/a	n/a	n/a	n/a	n/a
229.7946	1	30	n/a	n/a	1	n/a	n/a	n/a	n/a	n/a	n/a	n/a	n/a
231.8112	1	10	1580.2	1580.2	1	0	1	0	0	0	0.3	0.3	28
233.3944	1	20	n/a	n/a	1	n/a	n/a	n/a	n/a	n/a	n/a	n/a	n/a
234.4824	1	80	n/a	n/a	1	n/a	n/a	n/a	n/a	n/a	n/a	n/a	n/a
234.5824	1	80	n/a	n/a	1	n/a	n/a	n/a	n/a	n/a	n/a	n/a	n/a
234.7942	1	31	n/a	n/a	1	n/a	n/a	n/a	n/a	n/a	n/a	n/a	n/a
236.8108	1	10	2132.4	2132.4	1	0	1	0	0	0	0.1	0.1	29
238.9606	1	20	n/a	n/a	1	n/a	n/a	n/a	n/a	n/a	n/a	n/a	n/a
240.4918	1	80	n/a	n/a	1	n/a	n/a	n/a	n/a	n/a	n/a	n/a	n/a
240.5918	1	80	n/a	n/a	1	n/a	n/a	n/a	n/a	n/a	n/a	n/a	n/a
240.794	1	31	n/a	n/a	1	n/a	n/a	n/a	n/a	n/a	n/a	n/a	n/a
242.8104	1	10	1332.7	1332.7	1	0	1	0	0	0	0.7	0.7	30
244.1604	1	20	n/a	n/a	1	n/a	n/a	n/a	n/a	n/a	n/a	n/a	n/a
245.2852	1	80	n/a	n/a	1	n/a	n/a	n/a	n/a	n/a	n/a	n/a	n/a
245.3852	1	80	n/a	n/a	1	n/a	n/a	n/a	n/a	n/a	n/a	n/a	n/a
245.5936	1	31	n/a	n/a	1	n/a	n/a	n/a	n/a	n/a	n/a	n/a	n/a
255.6264	1	10	2628.5	2628.5	1	0	1	0	0.8	0.80333	0.2	0.21331	31
258.2596	1	20	n/a	n/a	1	n/a	n/a	n/a	n/a	n/a	n/a	n/a	n/a
259.6316	1	80	n/a	n/a	1	n/a	n/a	n/a	n/a	n/a	n/a	n/a	n/a
259.7316	1	80	n/a	n/a	1	n/a	n/a	n/a	n/a	n/a	n/a	n/a	n/a
259.9428	1	30	n/a	n/a	1	n/a	n/a	n/a	n/a	n/a	n/a	n/a	n/a
261.9594	1	40	n/a	n/a	1	n/a	n/a	n/a	n/a	n/a	n/a	n/a	n/a
263.9758	1	10	1542.8	1542.8	1	0	1	0	0.5	0.7706	0.5	0.7706	32
265.5258	1	20	n/a	n/a	1	n/a	n/a	n/a	n/a	n/a	n/a	n/a	n/a
267.2228	1	80	n/a	n/a	1	n/a	n/a	n/a	n/a	n/a	n/a	n/a	n/a
267.3228	1	80	n/a	n/a	1	n/a	n/a	n/a	n/a	n/a	n/a	n/a	n/a
267.5256	1	31	n/a	n/a	1	n/a	n/a	n/a	n/a	n/a	n/a	n/a	n/a
269.5422	1	40	n/a	n/a	1	n/a	n/a	n/a	n/a	n/a	n/a	n/a	n/a
271.5588	1	10	2151.7	2151.7	1	0	1	0	0.7	0.5595	0.8	0.95833	33
273.7252	1	20	n/a	n/a	1	n/a	n/a	n/a	n/a	n/a	n/a	n/a	n/a
275.4324	1	80	n/a	n/a	1	n/a	n/a	n/a	n/a	n/a	n/a	n/a	n/a
275.5324	1	80	n/a	n/a	1	n/a	n/a	n/a	n/a	n/a	n/a	n/a	n/a
275.7418	1	31	n/a	n/a	1	n/a	n/a	n/a	n/a	n/a	n/a	n/a	n/a
277.7584	1	40	n/a	n/a	1	n/a	n/a	n/a	n/a	n/a	n/a	n/a	n/a
279.775	1	10	991.4	991.4	1	0	1	0	0.8	0.24172	0.8	0.9375	34
280.7748	1	20	n/a	n/a	1	n/a	n/a	n/a	n/a	n/a	n/a	n/a	n/a
282.4328	1	80	n/a	n/a	1	n/a	n/a	n/a	n/a	n/a	n/a	n/a	n/a
282.5328	1	80	n/a	n/a	1	n/a	n/a	n/a	n/a	n/a	n/a	n/a	n/a
282.7414	1	31	n/a	n/a	1	n/a	n/a	n/a	n/a	n/a	n/a	n/a	n/a
284.758	1	40	n/a	n/a	1	n/a	n/a	n/a	n/a	n/a	n/a	n/a	n/a
286.7746	1	10	1527.7	1527.7	1	0	1	0	0.5	0.46167	0.8	0.975	35
288.3078	1	20	n/a	n/a	1	n/a	n/a	n/a	n/a	n/a	n/a	n/a	n/a
290.0418	1	80	n/a	n/a	1	n/a	n/a	n/a	n/a	n/a	n/a	n/a	n/a
290.1418	1	80	n/a	n/a	1	n/a	n/a	n/a	n/a	n/a	n/a	n/a	n/a
290.3576	1	31	n/a	n/a	1	n/a	n/a	n/a	n/a	n/a	n/a	n/a	n/a
292.3742	1	40	n/a	n/a	1	n/a	n/a	n/a	n/a	n/a	n/a	n/a	n/a
294.3908	1	10	2071.2	2071.2	1	0	1	0	0.4	0.13442	0.9	0.92295	36
296.474	1	20	n/a	n/a	1	n/a	n/a	n/a	n/a	n/a	n/a	n/a	n/a
298.3928	1	80	n/a	n/a	1	n/a	n/a	n/a	n/a	n/a	n/a	n/a	n/a
298.4928	1	80	n/a	n/a	1	n/a	n/a	n/a	n/a	n/a	n/a	n/a	n/a
298.7072	1	30	n/a	n/a	1	n/a	n/a	n/a	n/a	n/a	n/a	n/a	n/a
300.7236	1	40	n/a	n/a	1	n/a	n/a	n/a	n/a	n/a	n/a	n/a	n/a
302.7402	1	10	2089.5	2089.5	1	0	1	0	0.7	0.38357	0.9	0.95833	37
304.84	1	20	n/a	n/a	1	n/a	n/a	n/a	n/a	n/a	n/a	n/a	n/a
306.4712	1	80	n/a	n/a	1	n/a	n/a	n/a	n/a	n/a	n/a	n/a	n/a
306.5712	1	80	n/a	n/a	1	n/a	n/a	n/a	n/a	n/a	n/a	n/a	n/a
306.7734	1	31	n/a	n/a	1	n/a	n/a	n/a	n/a	n/a	n/a	n/a	n/a
308.7898	1	40	n/a	n/a	1	n/a	n/a	n/a	n/a	n/a	n/a	n/a	n/a
310.8064	1	10	1191.2	1191.2	1	0	1	0	0.6	0.58386	0.6	0.87579	38
312.0064	1	20	n/a	n/a	1	n/a	n/a	n/a	n/a	n/a	n/a	n/a	n/a
313.9614	1	80	n/a	n/a	1	n/a	n/a	n/a	n/a	n/a	n/a	n/a	n/a
314.0614	1	80	n/a	n/a	1	n/a	n/a	n/a	n/a	n/a	n/a	n/a	n/a
314.2728	1	30	n/a	n/a	1	n/a	n/a	n/a	n/a	n/a	n/a	n/a	n/a
316.2894	1	40	n/a	n/a	1	n/a	n/a	n/a	n/a	n/a	n/a	n/a	n/a
318.306	1	10	2555.5	2555.5	1	0	1	0	0.5	0.98397	0.2	0.38397	39
320.8724	1	20	n/a	n/a	1	n/a	n/a	n/a	n/a	n/a	n/a	n/a	n/a
322.1334	1	80	n/a	n/a	1	n/a	n/a	n/a	n/a	n/a	n/a	n/a	n/a
322.2334	1	80	n/a	n/a	1	n/a	n/a	n/a	n/a	n/a	n/a	n/a	n/a
322.439	1	31	n/a	n/a	1	n/a	n/a	n/a	n/a	n/a	n/a	n/a	n/a
324.4556	1	40	n/a	n/a	1	n/a	n/a	n/a	n/a	n/a	n/a	n/a	n/a
326.4722	1	10	2165	2165	1	0	1	0	0.4	0.81454	0.5	0.70969	40
328.6554	1	20	n/a	n/a	1	n/a	n/a	n/a	n/a	n/a	n/a	n/a	n/a
329.9784	1	80	n/a	n/a	1	n/a	n/a	n/a	n/a	n/a	n/a	n/a	n/a
330.0784	1	80	n/a	n/a	1	n/a	n/a	n/a	n/a	n/a	n/a	n/a	n/a
330.2886	1	31	n/a	n/a	1	n/a	n/a	n/a	n/a	n/a	n/a	n/a	n/a
332.3052	1	40	n/a	n/a	1	n/a	n/a	n/a	n/a	n/a	n/a	n/a	n/a
442.1152	1	10	1815.3	1815.3	1	1	0	0	0	0	0.1	0.1	1
443.9484	1	20	n/a	n/a	1	n/a	n/a	n/a	n/a	n/a	n/a	n/a	n/a
445.1144	1	80	n/a	n/a	1	n/a	n/a	n/a	n/a	n/a	n/a	n/a	n/a
445.2144	1	80	n/a	n/a	1	n/a	n/a	n/a	n/a	n/a	n/a	n/a	n/a
445.4316	1	31	n/a	n/a	1	n/a	n/a	n/a	n/a	n/a	n/a	n/a	n/a
447.4482	1	10	1746.2	1746.2	1	1	0	0	0	0	0.7	0.7	2
449.1982	1	20	n/a	n/a	1	n/a	n/a	n/a	n/a	n/a	n/a	n/a	n/a
451.0792	1	80	n/a	n/a	1	n/a	n/a	n/a	n/a	n/a	n/a	n/a	n/a
451.1792	1	80	n/a	n/a	1	n/a	n/a	n/a	n/a	n/a	n/a	n/a	n/a
451.3814	1	30	n/a	n/a	1	n/a	n/a	n/a	n/a	n/a	n/a	n/a	n/a
453.3978	1	10	1572.4	1572.4	1	1	0	0	0	0	0.9	0.9	3
454.9812	1	20	n/a	n/a	1	n/a	n/a	n/a	n/a	n/a	n/a	n/a	n/a
456.7112	1	80	n/a	n/a	1	n/a	n/a	n/a	n/a	n/a	n/a	n/a	n/a
456.8112	1	80	n/a	n/a	1	n/a	n/a	n/a	n/a	n/a	n/a	n/a	n/a
457.0144	1	31	n/a	n/a	1	n/a	n/a	n/a	n/a	n/a	n/a	n/a	n/a
459.0308	1	10	819.3	819.3	1	1	0	0	0	0	0.2	0.2	4
459.8642	1	20	n/a	n/a	1	n/a	n/a	n/a	n/a	n/a	n/a	n/a	n/a
461.6852	1	80	n/a	n/a	1	n/a	n/a	n/a	n/a	n/a	n/a	n/a	n/a
461.7852	1	80	n/a	n/a	1	n/a	n/a	n/a	n/a	n/a	n/a	n/a	n/a
461.9974	1	31	n/a	n/a	1	n/a	n/a	n/a	n/a	n/a	n/a	n/a	n/a
464.014	1	10	1308.1	1308.1	1	1	0	0	0	0	0.5	0.5	5
465.3306	1	20	n/a	n/a	1	n/a	n/a	n/a	n/a	n/a	n/a	n/a	n/a
466.8036	1	80	n/a	n/a	1	n/a	n/a	n/a	n/a	n/a	n/a	n/a	n/a
466.9036	1	80	n/a	n/a	1	n/a	n/a	n/a	n/a	n/a	n/a	n/a	n/a
467.1138	1	30	n/a	n/a	1	n/a	n/a	n/a	n/a	n/a	n/a	n/a	n/a
469.1302	1	10	1151.7	1151.7	1	1	0	0	0	0	0.1	0.1	6
470.2968	1	20	n/a	n/a	1	n/a	n/a	n/a	n/a	n/a	n/a	n/a	n/a
471.661	1	80	n/a	n/a	1	n/a	n/a	n/a	n/a	n/a	n/a	n/a	n/a
471.7608	1	80	n/a	n/a	1	n/a	n/a	n/a	n/a	n/a	n/a	n/a	n/a
471.9634	1	31	n/a	n/a	1	n/a	n/a	n/a	n/a	n/a	n/a	n/a	n/a
473.98	1	10	2765.8	2765.8	1	1	0	0	0	0	0.8	0.8	7
476.7632	1	20	n/a	n/a	1	n/a	n/a	n/a	n/a	n/a	n/a	n/a	n/a
478.0252	1	80	n/a	n/a	1	n/a	n/a	n/a	n/a	n/a	n/a	n/a	n/a
478.1252	1	80	n/a	n/a	1	n/a	n/a	n/a	n/a	n/a	n/a	n/a	n/a
478.3298	1	31	n/a	n/a	1	n/a	n/a	n/a	n/a	n/a	n/a	n/a	n/a
480.3462	1	10	703.4	703.4	1	1	0	0	0	0	0.1	0.1	8
481.0628	1	20	n/a	n/a	1	n/a	n/a	n/a	n/a	n/a	n/a	n/a	n/a
482.635	1	80	n/a	n/a	1	n/a	n/a	n/a	n/a	n/a	n/a	n/a	n/a
482.735	1	80	n/a	n/a	1	n/a	n/a	n/a	n/a	n/a	n/a	n/a	n/a
482.9462	1	31	n/a	n/a	1	n/a	n/a	n/a	n/a	n/a	n/a	n/a	n/a
484.9626	1	10	887	887	1	1	0	0	0	0	0.3	0.3	9
485.8626	1	20	n/a	n/a	1	n/a	n/a	n/a	n/a	n/a	n/a	n/a	n/a
487.3576	1	80	n/a	n/a	1	n/a	n/a	n/a	n/a	n/a	n/a	n/a	n/a
487.4576	1	80	n/a	n/a	1	n/a	n/a	n/a	n/a	n/a	n/a	n/a	n/a
487.6626	1	30	n/a	n/a	1	n/a	n/a	n/a	n/a	n/a	n/a	n/a	n/a
489.679	1	10	1642.4	1642.4	1	1	0	0	0	0	0.4	0.4	10
491.329	1	20	n/a	n/a	1	n/a	n/a	n/a	n/a	n/a	n/a	n/a	n/a
493.071	1	80	n/a	n/a	1	n/a	n/a	n/a	n/a	n/a	n/a	n/a	n/a
493.171	1	80	n/a	n/a	1	n/a	n/a	n/a	n/a	n/a	n/a	n/a	n/a
493.3788	1	31	n/a	n/a	1	n/a	n/a	n/a	n/a	n/a	n/a	n/a	n/a
503.4116	1	10	3669.5	3669.5	1	1	0	0	0.8	0.62755	0.7	0.9375	11
507.0946	1	20	n/a	n/a	1	n/a	n/a	n/a	n/a	n/a	n/a	n/a	n/a
508.5428	1	80	n/a	n/a	1	n/a	n/a	n/a	n/a	n/a	n/a	n/a	n/a
508.6426	1	80	n/a	n/a	1	n/a	n/a	n/a	n/a	n/a	n/a	n/a	n/a
508.8446	1	30	n/a	n/a	1	n/a	n/a	n/a	n/a	n/a	n/a	n/a	n/a
510.8612	1	40	n/a	n/a	1	n/a	n/a	n/a	n/a	n/a	n/a	n/a	n/a
512.8776	1	10	1275.3	1275.3	1	1	0	0	0.7	0.86252	0.2	0.34589	12
514.161	1	20	n/a	n/a	1	n/a	n/a	n/a	n/a	n/a	n/a	n/a	n/a
515.879	1	80	n/a	n/a	1	n/a	n/a	n/a	n/a	n/a	n/a	n/a	n/a
515.979	1	80	n/a	n/a	1	n/a	n/a	n/a	n/a	n/a	n/a	n/a	n/a
516.1942	1	31	n/a	n/a	1	n/a	n/a	n/a	n/a	n/a	n/a	n/a	n/a
518.2106	1	40	n/a	n/a	1	n/a	n/a	n/a	n/a	n/a	n/a	n/a	n/a
520.2272	1	10	1909.5	1909.5	1	1	0	0	0.6	0.23443	0.6	0.35165	13
522.1438	1	20	n/a	n/a	1	n/a	n/a	n/a	n/a	n/a	n/a	n/a	n/a
523.3478	1	80	n/a	n/a	1	n/a	n/a	n/a	n/a	n/a	n/a	n/a	n/a
523.4478	1	80	n/a	n/a	1	n/a	n/a	n/a	n/a	n/a	n/a	n/a	n/a
523.6604	1	30	n/a	n/a	1	n/a	n/a	n/a	n/a	n/a	n/a	n/a	n/a
525.677	1	40	n/a	n/a	1	n/a	n/a	n/a	n/a	n/a	n/a	n/a	n/a
527.6934	1	10	2635.1	2635.1	1	1	0	0	0.8	0.25174	0.7	0.50696	14
530.3432	1	20	n/a	n/a	1	n/a	n/a	n/a	n/a	n/a	n/a	n/a	n/a
531.9844	1	80	n/a	n/a	1	n/a	n/a	n/a	n/a	n/a	n/a	n/a	n/a
532.0844	1	80	n/a	n/a	1	n/a	n/a	n/a	n/a	n/a	n/a	n/a	n/a
532.2932	1	30	n/a	n/a	1	n/a	n/a	n/a	n/a	n/a	n/a	n/a	n/a
534.3098	1	40	n/a	n/a	1	n/a	n/a	n/a	n/a	n/a	n/a	n/a	n/a
536.3262	1	10	2962.1	2962.1	1	1	0	0	0.8	0.42795	0.9	0.9375	15
539.2928	1	20	n/a	n/a	1	n/a	n/a	n/a	n/a	n/a	n/a	n/a	n/a
541.0218	1	80	n/a	n/a	1	n/a	n/a	n/a	n/a	n/a	n/a	n/a	n/a
541.1218	1	80	n/a	n/a	1	n/a	n/a	n/a	n/a	n/a	n/a	n/a	n/a
541.326	1	30	n/a	n/a	1	n/a	n/a	n/a	n/a	n/a	n/a	n/a	n/a
543.3426	1	40	n/a	n/a	1	n/a	n/a	n/a	n/a	n/a	n/a	n/a	n/a
545.359	1	10	1881.1	1881.1	1	1	0	0	0.6	0.58991	0.5	0.63486	16
547.259	1	20	n/a	n/a	1	n/a	n/a	n/a	n/a	n/a	n/a	n/a	n/a
548.4552	1	80	n/a	n/a	1	n/a	n/a	n/a	n/a	n/a	n/a	n/a	n/a
548.5552	1	80	n/a	n/a	1	n/a	n/a	n/a	n/a	n/a	n/a	n/a	n/a
548.7588	1	31	n/a	n/a	1	n/a	n/a	n/a	n/a	n/a	n/a	n/a	n/a
550.7754	1	40	n/a	n/a	1	n/a	n/a	n/a	n/a	n/a	n/a	n/a	n/a
552.792	1	10	2912	2912	1	1	0	0	0.8	0.90932	0.6	0.9375	17
555.7084	1	20	n/a	n/a	1	n/a	n/a	n/a	n/a	n/a	n/a	n/a	n/a
556.9624	1	80	n/a	n/a	1	n/a	n/a	n/a	n/a	n/a	n/a	n/a	n/a
557.0624	1	80	n/a	n/a	1	n/a	n/a	n/a	n/a	n/a	n/a	n/a	n/a
557.275	1	30	n/a	n/a	1	n/a	n/a	n/a	n/a	n/a	n/a	n/a	n/a
559.2916	1	40	n/a	n/a	1	n/a	n/a	n/a	n/a	n/a	n/a	n/a	n/a
561.3082	1	10	2235.7	2235.7	1	1	0	0	0.5	0.97775	0.2	0.37775	18
563.558	1	20	n/a	n/a	1	n/a	n/a	n/a	n/a	n/a	n/a	n/a	n/a
565.517	1	80	n/a	n/a	1	n/a	n/a	n/a	n/a	n/a	n/a	n/a	n/a
565.617	1	80	n/a	n/a	1	n/a	n/a	n/a	n/a	n/a	n/a	n/a	n/a
565.8246	1	31	n/a	n/a	1	n/a	n/a	n/a	n/a	n/a	n/a	n/a	n/a
567.841	1	40	n/a	n/a	1	n/a	n/a	n/a	n/a	n/a	n/a	n/a	n/a
569.8576	1	10	1206.1	1206.1	1	1	0	0	0.8	0.15388	0.8	0.61552	19
571.0742	1	20	n/a	n/a	1	n/a	n/a	n/a	n/a	n/a	n/a	n/a	n/a
572.6992	1	80	n/a	n/a	1	n/a	n/a	n/a	n/a	n/a	n/a	n/a	n/a
572.7992	1	80	n/a	n/a	1	n/a	n/a	n/a	n/a	n/a	n/a	n/a	n/a
573.0074	1	30	n/a	n/a	1	n/a	n/a	n/a	n/a	n/a	n/a	n/a	n/a
575.024	1	40	n/a	n/a	1	n/a	n/a	n/a	n/a	n/a	n/a	n/a	n/a
577.0406	1	10	2022.9	2022.9	1	1	0	0	0.7	0.0076315	0.8	0.35114	20
579.0738	1	20	n/a	n/a	1	n/a	n/a	n/a	n/a	n/a	n/a	n/a	n/a
580.6228	1	80	n/a	n/a	1	n/a	n/a	n/a	n/a	n/a	n/a	n/a	n/a
580.7228	1	80	n/a	n/a	1	n/a	n/a	n/a	n/a	n/a	n/a	n/a	n/a
580.9402	1	31	n/a	n/a	1	n/a	n/a	n/a	n/a	n/a	n/a	n/a	n/a
582.9568	1	40	n/a	n/a	1	n/a	n/a	n/a	n/a	n/a	n/a	n/a	n/a
592.9896	1	10	2345.5	2345.5	1	1	0	0	0	0	0.5	0.5	21
595.3394	1	20	n/a	n/a	1	n/a	n/a	n/a	n/a	n/a	n/a	n/a	n/a
596.4964	1	80	n/a	n/a	1	n/a	n/a	n/a	n/a	n/a	n/a	n/a	n/a
596.5964	1	80	n/a	n/a	1	n/a	n/a	n/a	n/a	n/a	n/a	n/a	n/a
596.806	1	30	n/a	n/a	1	n/a	n/a	n/a	n/a	n/a	n/a	n/a	n/a
598.8226	1	10	3520.4	3520.4	1	1	0	0	0	0	0.9	0.9	22
602.3556	1	20	n/a	n/a	1	n/a	n/a	n/a	n/a	n/a	n/a	n/a	n/a
603.7406	1	80	n/a	n/a	1	n/a	n/a	n/a	n/a	n/a	n/a	n/a	n/a
603.8406	1	80	n/a	n/a	1	n/a	n/a	n/a	n/a	n/a	n/a	n/a	n/a
604.0556	1	31	n/a	n/a	1	n/a	n/a	n/a	n/a	n/a	n/a	n/a	n/a
606.0722	1	10	1726.7	1726.7	1	1	0	0	0	0	0.3	0.3	23
607.8054	1	20	n/a	n/a	1	n/a	n/a	n/a	n/a	n/a	n/a	n/a	n/a
608.8424	1	80	n/a	n/a	1	n/a	n/a	n/a	n/a	n/a	n/a	n/a	n/a
608.9424	1	80	n/a	n/a	1	n/a	n/a	n/a	n/a	n/a	n/a	n/a	n/a
609.1552	1	31	n/a	n/a	1	n/a	n/a	n/a	n/a	n/a	n/a	n/a	n/a
611.1718	1	10	1170.8	1170.8	1	1	0	0	0	0	0.4	0.4	24
612.355	1	20	n/a	n/a	1	n/a	n/a	n/a	n/a	n/a	n/a	n/a	n/a
613.554	1	80	n/a	n/a	1	n/a	n/a	n/a	n/a	n/a	n/a	n/a	n/a
613.654	1	80	n/a	n/a	1	n/a	n/a	n/a	n/a	n/a	n/a	n/a	n/a
613.8716	1	31	n/a	n/a	1	n/a	n/a	n/a	n/a	n/a	n/a	n/a	n/a
615.8882	1	10	4918.3	4918.3	1	1	0	0	0	0	0.3	0.3	25
620.8212	1	20	n/a	n/a	1	n/a	n/a	n/a	n/a	n/a	n/a	n/a	n/a
622.2532	1	80	n/a	n/a	1	n/a	n/a	n/a	n/a	n/a	n/a	n/a	n/a
622.3532	1	80	n/a	n/a	1	n/a	n/a	n/a	n/a	n/a	n/a	n/a	n/a
622.5712	1	31	n/a	n/a	1	n/a	n/a	n/a	n/a	n/a	n/a	n/a	n/a
624.5876	1	10	2634.6	2634.6	1	1	0	0	0	0	0.8	0.8	26
627.2376	1	20	n/a	n/a	1	n/a	n/a	n/a	n/a	n/a	n/a	n/a	n/a
628.4696	1	80	n/a	n/a	1	n/a	n/a	n/a	n/a	n/a	n/a	n/a	n/a
628.5696	1	80	n/a	n/a	1	n/a	n/a	n/a	n/a	n/a	n/a	n/a	n/a
628.7874	1	31	n/a	n/a	1	n/a	n/a	n/a	n/a	n/a	n/a	n/a	n/a
630.804	1	10	1170.3	1170.3	1	1	0	0	0	0	0.8	0.8	27
631.9872	1	20	n/a	n/a	1	n/a	n/a	n/a	n/a	n/a	n/a	n/a	n/a
633.5252	1	80	n/a	n/a	1	n/a	n/a	n/a	n/a	n/a	n/a	n/a	n/a
633.6252	1	80	n/a	n/a	1	n/a	n/a	n/a	n/a	n/a	n/a	n/a	n/a
633.8372	1	30	n/a	n/a	1	n/a	n/a	n/a	n/a	n/a	n/a	n/a	n/a
635.8536	1	10	3272.4	3272.4	1	1	0	0	0	0	0.5	0.5	28
639.1368	1	20	n/a	n/a	1	n/a	n/a	n/a	n/a	n/a	n/a	n/a	n/a
640.9768	1	80	n/a	n/a	1	n/a	n/a	n/a	n/a	n/a	n/a	n/a	n/a
641.0768	1	80	n/a	n/a	1	n/a	n/a	n/a	n/a	n/a	n/a	n/a	n/a
641.2866	1	30	n/a	n/a	1	n/a	n/a	n/a	n/a	n/a	n/a	n/a	n/a
643.3032	1	10	910.8	910.8	1	1	0	0	0	0	0.3	0.3	29
644.2198	1	20	n/a	n/a	1	n/a	n/a	n/a	n/a	n/a	n/a	n/a	n/a
646.1178	1	80	n/a	n/a	1	n/a	n/a	n/a	n/a	n/a	n/a	n/a	n/a
646.2178	1	80	n/a	n/a	1	n/a	n/a	n/a	n/a	n/a	n/a	n/a	n/a
646.4198	1	31	n/a	n/a	1	n/a	n/a	n/a	n/a	n/a	n/a	n/a	n/a
648.4362	1	10	1681.6	1681.6	1	1	0	0	0	0	0.9	0.9	30
650.1362	1	20	n/a	n/a	1	n/a	n/a	n/a	n/a	n/a	n/a	n/a	n/a
651.6932	1	80	n/a	n/a	1	n/a	n/a	n/a	n/a	n/a	n/a	n/a	n/a
651.7932	1	80	n/a	n/a	1	n/a	n/a	n/a	n/a	n/a	n/a	n/a	n/a
652.0028	1	31	n/a	n/a	1	n/a	n/a	n/a	n/a	n/a	n/a	n/a	n/a
662.0354	1	10	3298	3298	1	1	0	0	0.5	0.49396	0.5	0.49396	31
665.352	1	20	n/a	n/a	1	n/a	n/a	n/a	n/a	n/a	n/a	n/a	n/a
666.841	1	80	n/a	n/a	1	n/a	n/a	n/a	n/a	n/a	n/a	n/a	n/a
666.941	1	80	n/a	n/a	1	n/a	n/a	n/a	n/a	n/a	n/a	n/a	n/a
667.1518	1	30	n/a	n/a	1	n/a	n/a	n/a	n/a	n/a	n/a	n/a	n/a
669.1684	1	40	n/a	n/a	1	n/a	n/a	n/a	n/a	n/a	n/a	n/a	n/a
671.1848	1	10	1044.4	1044.4	1	1	0	0	0.5	0.34701	0.8	0.94701	32
672.2348	1	20	n/a	n/a	1	n/a	n/a	n/a	n/a	n/a	n/a	n/a	n/a
673.6038	1	80	n/a	n/a	1	n/a	n/a	n/a	n/a	n/a	n/a	n/a	n/a
673.7038	1	80	n/a	n/a	1	n/a	n/a	n/a	n/a	n/a	n/a	n/a	n/a
673.918	1	31	n/a	n/a	1	n/a	n/a	n/a	n/a	n/a	n/a	n/a	n/a
675.9346	1	40	n/a	n/a	1	n/a	n/a	n/a	n/a	n/a	n/a	n/a	n/a
677.9512	1	10	870	870	1	1	0	0	0.6	0.46584	0.1	0.03125	33
678.8344	1	20	n/a	n/a	1	n/a	n/a	n/a	n/a	n/a	n/a	n/a	n/a
680.6354	1	80	n/a	n/a	1	n/a	n/a	n/a	n/a	n/a	n/a	n/a	n/a
680.7354	1	80	n/a	n/a	1	n/a	n/a	n/a	n/a	n/a	n/a	n/a	n/a
680.951	1	31	n/a	n/a	1	n/a	n/a	n/a	n/a	n/a	n/a	n/a	n/a
682.9676	1	40	n/a	n/a	1	n/a	n/a	n/a	n/a	n/a	n/a	n/a	n/a
684.984	1	10	2204.9	2204.9	1	1	0	0	0.5	0.74445	0.2	0.14445	34
687.2006	1	20	n/a	n/a	1	n/a	n/a	n/a	n/a	n/a	n/a	n/a	n/a
688.6206	1	80	n/a	n/a	1	n/a	n/a	n/a	n/a	n/a	n/a	n/a	n/a
688.7206	1	80	n/a	n/a	1	n/a	n/a	n/a	n/a	n/a	n/a	n/a	n/a
688.9338	1	31	n/a	n/a	1	n/a	n/a	n/a	n/a	n/a	n/a	n/a	n/a
690.9504	1	40	n/a	n/a	1	n/a	n/a	n/a	n/a	n/a	n/a	n/a	n/a
692.967	1	10	1437.9	1437.9	1	1	0	0	0.7	0.38371	0.7	0.89532	35
694.4168	1	20	n/a	n/a	1	n/a	n/a	n/a	n/a	n/a	n/a	n/a	n/a
695.8858	1	80	n/a	n/a	1	n/a	n/a	n/a	n/a	n/a	n/a	n/a	n/a
695.9858	1	80	n/a	n/a	1	n/a	n/a	n/a	n/a	n/a	n/a	n/a	n/a
696.2	1	31	n/a	n/a	1	n/a	n/a	n/a	n/a	n/a	n/a	n/a	n/a
698.2166	1	40	n/a	n/a	1	n/a	n/a	n/a	n/a	n/a	n/a	n/a	n/a
700.2332	1	10	1291.5	1291.5	1	1	0	0	0.4	0.15586	0.7	0.60391	36
701.533	1	20	n/a	n/a	1	n/a	n/a	n/a	n/a	n/a	n/a	n/a	n/a
702.8452	1	80	n/a	n/a	1	n/a	n/a	n/a	n/a	n/a	n/a	n/a	n/a
702.9452	1	80	n/a	n/a	1	n/a	n/a	n/a	n/a	n/a	n/a	n/a	n/a
703.1496	1	31	n/a	n/a	1	n/a	n/a	n/a	n/a	n/a	n/a	n/a	n/a
705.1662	1	40	n/a	n/a	1	n/a	n/a	n/a	n/a	n/a	n/a	n/a	n/a
707.1828	1	10	869.7	869.7	1	1	0	0	0.4	0.2425	0.9	0.97917	37
708.066	1	20	n/a	n/a	1	n/a	n/a	n/a	n/a	n/a	n/a	n/a	n/a
709.922	1	80	n/a	n/a	1	n/a	n/a	n/a	n/a	n/a	n/a	n/a	n/a
710.022	1	80	n/a	n/a	1	n/a	n/a	n/a	n/a	n/a	n/a	n/a	n/a
710.2326	1	31	n/a	n/a	1	n/a	n/a	n/a	n/a	n/a	n/a	n/a	n/a
712.2492	1	40	n/a	n/a	1	n/a	n/a	n/a	n/a	n/a	n/a	n/a	n/a
714.2656	1	10	2602.6	2602.6	1	1	0	0	0.8	0.19286	0.6	0.0625	38
716.8822	1	20	n/a	n/a	1	n/a	n/a	n/a	n/a	n/a	n/a	n/a	n/a
718.3522	1	80	n/a	n/a	1	n/a	n/a	n/a	n/a	n/a	n/a	n/a	n/a
718.4522	1	80	n/a	n/a	1	n/a	n/a	n/a	n/a	n/a	n/a	n/a	n/a
718.6654	1	31	n/a	n/a	1	n/a	n/a	n/a	n/a	n/a	n/a	n/a	n/a
720.682	1	40	n/a	n/a	1	n/a	n/a	n/a	n/a	n/a	n/a	n/a	n/a
722.6984	1	10	1465.6	1465.6	1	1	0	0	0.5	0.83861	0.1	0.038611	39
724.1818	1	20	n/a	n/a	1	n/a	n/a	n/a	n/a	n/a	n/a	n/a	n/a
726.1138	1	80	n/a	n/a	1	n/a	n/a	n/a	n/a	n/a	n/a	n/a	n/a
726.2138	1	80	n/a	n/a	1	n/a	n/a	n/a	n/a	n/a	n/a	n/a	n/a
726.4316	1	31	n/a	n/a	1	n/a	n/a	n/a	n/a	n/a	n/a	n/a	n/a
728.4482	1	40	n/a	n/a	1	n/a	n/a	n/a	n/a	n/a	n/a	n/a	n/a
730.4648	1	10	1699.3	1699.3	1	1	0	0	0.7	0.35329	0.6	0.49102	40
732.1812	1	20	n/a	n/a	1	n/a	n/a	n/a	n/a	n/a	n/a	n/a	n/a
733.2462	1	80	n/a	n/a	1	n/a	n/a	n/a	n/a	n/a	n/a	n/a	n/a
733.3462	1	80	n/a	n/a	1	n/a	n/a	n/a	n/a	n/a	n/a	n/a	n/a
733.5478	1	31	n/a	n/a	1	n/a	n/a	n/a	n/a	n/a	n/a	n/a	n/a
735.5644	1	40	n/a	n/a	1	n/a	n/a	n/a	n/a	n/a	n/a	n/a	n/a
889.9718	1	10	1916.4	1916.4	1	0	0	1	0	0	0.8	0.8	1
891.905	1	20	n/a	n/a	1	n/a	n/a	n/a	n/a	n/a	n/a	n/a	n/a
893.0202	1	80	n/a	n/a	1	n/a	n/a	n/a	n/a	n/a	n/a	n/a	n/a
893.1202	1	80	n/a	n/a	1	n/a	n/a	n/a	n/a	n/a	n/a	n/a	n/a
893.3216	1	31	n/a	n/a	1	n/a	n/a	n/a	n/a	n/a	n/a	n/a	n/a
895.3382	1	10	2342	2342	1	0	0	1	0	0	0.8	0.8	2
897.688	1	20	n/a	n/a	1	n/a	n/a	n/a	n/a	n/a	n/a	n/a	n/a
899.095	1	80	n/a	n/a	1	n/a	n/a	n/a	n/a	n/a	n/a	n/a	n/a
899.195	1	80	n/a	n/a	1	n/a	n/a	n/a	n/a	n/a	n/a	n/a	n/a
899.4046	1	31	n/a	n/a	1	n/a	n/a	n/a	n/a	n/a	n/a	n/a	n/a
901.4212	1	10	1138.8	1138.8	1	0	0	1	0	0	0.2	0.2	3
902.5712	1	20	n/a	n/a	1	n/a	n/a	n/a	n/a	n/a	n/a	n/a	n/a
903.5942	1	80	n/a	n/a	1	n/a	n/a	n/a	n/a	n/a	n/a	n/a	n/a
903.6942	1	80	n/a	n/a	1	n/a	n/a	n/a	n/a	n/a	n/a	n/a	n/a
903.9044	1	31	n/a	n/a	1	n/a	n/a	n/a	n/a	n/a	n/a	n/a	n/a
905.921	1	10	1471	1471	1	0	0	1	0	0	0.1	0.1	4
907.4042	1	20	n/a	n/a	1	n/a	n/a	n/a	n/a	n/a	n/a	n/a	n/a
908.4572	1	80	n/a	n/a	1	n/a	n/a	n/a	n/a	n/a	n/a	n/a	n/a
908.5572	1	80	n/a	n/a	1	n/a	n/a	n/a	n/a	n/a	n/a	n/a	n/a
908.7708	1	31	n/a	n/a	1	n/a	n/a	n/a	n/a	n/a	n/a	n/a	n/a
910.7874	1	10	1468.5	1468.5	1	0	0	1	0	0	0.7	0.7	5
912.2706	1	20	n/a	n/a	1	n/a	n/a	n/a	n/a	n/a	n/a	n/a	n/a
913.9976	1	80	n/a	n/a	1	n/a	n/a	n/a	n/a	n/a	n/a	n/a	n/a
914.0976	1	80	n/a	n/a	1	n/a	n/a	n/a	n/a	n/a	n/a	n/a	n/a
914.3038	1	31	n/a	n/a	1	n/a	n/a	n/a	n/a	n/a	n/a	n/a	n/a
916.3204	1	10	1327.4	1327.4	1	0	0	1	0	0	0.9	0.9	6
917.6536	1	20	n/a	n/a	1	n/a	n/a	n/a	n/a	n/a	n/a	n/a	n/a
918.6796	1	80	n/a	n/a	1	n/a	n/a	n/a	n/a	n/a	n/a	n/a	n/a
918.7796	1	80	n/a	n/a	1	n/a	n/a	n/a	n/a	n/a	n/a	n/a	n/a
918.9868	1	31	n/a	n/a	1	n/a	n/a	n/a	n/a	n/a	n/a	n/a	n/a
921.0034	1	10	1492.2	1492.2	1	0	0	1	0	0	0.8	0.8	7
922.5032	1	20	n/a	n/a	1	n/a	n/a	n/a	n/a	n/a	n/a	n/a	n/a
924.3302	1	80	n/a	n/a	1	n/a	n/a	n/a	n/a	n/a	n/a	n/a	n/a
924.4302	1	80	n/a	n/a	1	n/a	n/a	n/a	n/a	n/a	n/a	n/a	n/a
924.6364	1	31	n/a	n/a	1	n/a	n/a	n/a	n/a	n/a	n/a	n/a	n/a
926.653	1	10	1858.4	1858.4	1	0	0	1	0	0	0.7	0.7	8
928.5196	1	20	n/a	n/a	1	n/a	n/a	n/a	n/a	n/a	n/a	n/a	n/a
929.5716	1	80	n/a	n/a	1	n/a	n/a	n/a	n/a	n/a	n/a	n/a	n/a
929.6716	1	80	n/a	n/a	1	n/a	n/a	n/a	n/a	n/a	n/a	n/a	n/a
929.8862	1	31	n/a	n/a	1	n/a	n/a	n/a	n/a	n/a	n/a	n/a	n/a
931.9028	1	10	2688.6	2688.6	1	0	0	1	0	0	0.2	0.2	9
934.6026	1	20	n/a	n/a	1	n/a	n/a	n/a	n/a	n/a	n/a	n/a	n/a
936.3346	1	80	n/a	n/a	1	n/a	n/a	n/a	n/a	n/a	n/a	n/a	n/a
936.4346	1	80	n/a	n/a	1	n/a	n/a	n/a	n/a	n/a	n/a	n/a	n/a
936.6524	1	31	n/a	n/a	1	n/a	n/a	n/a	n/a	n/a	n/a	n/a	n/a
938.669	1	10	1826.2	1826.2	1	0	0	1	0	0	0.5	0.5	10
940.5022	1	20	n/a	n/a	1	n/a	n/a	n/a	n/a	n/a	n/a	n/a	n/a
941.7712	1	80	n/a	n/a	1	n/a	n/a	n/a	n/a	n/a	n/a	n/a	n/a
941.8712	1	80	n/a	n/a	1	n/a	n/a	n/a	n/a	n/a	n/a	n/a	n/a
942.0854	1	31	n/a	n/a	1	n/a	n/a	n/a	n/a	n/a	n/a	n/a	n/a
952.1182	1	10	2056.6	2056.6	1	0	0	1	0.7	0.042414	0.8	0.4323	11
954.1848	1	20	n/a	n/a	1	n/a	n/a	n/a	n/a	n/a	n/a	n/a	n/a
955.2258	1	80	n/a	n/a	1	n/a	n/a	n/a	n/a	n/a	n/a	n/a	n/a
955.3258	1	80	n/a	n/a	1	n/a	n/a	n/a	n/a	n/a	n/a	n/a	n/a
955.5346	1	31	n/a	n/a	1	n/a	n/a	n/a	n/a	n/a	n/a	n/a	n/a
957.5512	1	40	n/a	n/a	1	n/a	n/a	n/a	n/a	n/a	n/a	n/a	n/a
959.5678	1	10	1231	1231	1	0	0	1	0.5	0.63652	0.2	0.03652	12
960.801	1	20	n/a	n/a	1	n/a	n/a	n/a	n/a	n/a	n/a	n/a	n/a
962.286	1	80	n/a	n/a	1	n/a	n/a	n/a	n/a	n/a	n/a	n/a	n/a
962.386	1	80	n/a	n/a	1	n/a	n/a	n/a	n/a	n/a	n/a	n/a	n/a
962.6008	1	30	n/a	n/a	1	n/a	n/a	n/a	n/a	n/a	n/a	n/a	n/a
964.6174	1	40	n/a	n/a	1	n/a	n/a	n/a	n/a	n/a	n/a	n/a	n/a
966.634	1	10	2452.5	2452.5	1	0	0	1	0.4	0.94667	0.5	0.79778	13
969.1004	1	20	n/a	n/a	1	n/a	n/a	n/a	n/a	n/a	n/a	n/a	n/a
970.9706	1	80	n/a	n/a	1	n/a	n/a	n/a	n/a	n/a	n/a	n/a	n/a
971.0706	1	80	n/a	n/a	1	n/a	n/a	n/a	n/a	n/a	n/a	n/a	n/a
971.2836	1	30	n/a	n/a	1	n/a	n/a	n/a	n/a	n/a	n/a	n/a	n/a
973.3002	1	40	n/a	n/a	1	n/a	n/a	n/a	n/a	n/a	n/a	n/a	n/a
975.3168	1	10	2585.5	2585.5	1	0	0	1	0.5	0.75311	0.9	0.975	14
977.9166	1	20	n/a	n/a	1	n/a	n/a	n/a	n/a	n/a	n/a	n/a	n/a
979.2596	1	80	n/a	n/a	1	n/a	n/a	n/a	n/a	n/a	n/a	n/a	n/a
979.3596	1	80	n/a	n/a	1	n/a	n/a	n/a	n/a	n/a	n/a	n/a	n/a
979.5666	1	31	n/a	n/a	1	n/a	n/a	n/a	n/a	n/a	n/a	n/a	n/a
981.583	1	40	n/a	n/a	1	n/a	n/a	n/a	n/a	n/a	n/a	n/a	n/a
983.5996	1	10	2142.5	2142.5	1	0	0	1	0.7	0.93638	0.2	0.51822	15
985.7496	1	20	n/a	n/a	1	n/a	n/a	n/a	n/a	n/a	n/a	n/a	n/a
986.8716	1	80	n/a	n/a	1	n/a	n/a	n/a	n/a	n/a	n/a	n/a	n/a
986.9716	1	80	n/a	n/a	1	n/a	n/a	n/a	n/a	n/a	n/a	n/a	n/a
987.1828	1	31	n/a	n/a	1	n/a	n/a	n/a	n/a	n/a	n/a	n/a	n/a
989.1994	1	40	n/a	n/a	1	n/a	n/a	n/a	n/a	n/a	n/a	n/a	n/a
991.2158	1	10	3262.1	3262.1	1	0	0	1	0.7	0.65364	0.5	0.85849	16
994.4824	1	20	n/a	n/a	1	n/a	n/a	n/a	n/a	n/a	n/a	n/a	n/a
996.2094	1	80	n/a	n/a	1	n/a	n/a	n/a	n/a	n/a	n/a	n/a	n/a
996.3094	1	80	n/a	n/a	1	n/a	n/a	n/a	n/a	n/a	n/a	n/a	n/a
996.5156	1	31	n/a	n/a	1	n/a	n/a	n/a	n/a	n/a	n/a	n/a	n/a
998.532	1	40	n/a	n/a	1	n/a	n/a	n/a	n/a	n/a	n/a	n/a	n/a
1000.5486	1	10	1433.1	1433.1	1	0	0	1	0.6	0.76409	0.2	0.14613	17
1001.9986	1	20	n/a	n/a	1	n/a	n/a	n/a	n/a	n/a	n/a	n/a	n/a
1003.6766	1	80	n/a	n/a	1	n/a	n/a	n/a	n/a	n/a	n/a	n/a	n/a
1003.7766	1	80	n/a	n/a	1	n/a	n/a	n/a	n/a	n/a	n/a	n/a	n/a
1003.9818	1	31	n/a	n/a	1	n/a	n/a	n/a	n/a	n/a	n/a	n/a	n/a
1005.9984	1	40	n/a	n/a	1	n/a	n/a	n/a	n/a	n/a	n/a	n/a	n/a
1008.0148	1	10	1438.7	1438.7	1	0	0	1	0.8	0.66944	0.4	0.67778	18
1009.4648	1	20	n/a	n/a	1	n/a	n/a	n/a	n/a	n/a	n/a	n/a	n/a
1010.5348	1	80	n/a	n/a	1	n/a	n/a	n/a	n/a	n/a	n/a	n/a	n/a
1010.6348	1	80	n/a	n/a	1	n/a	n/a	n/a	n/a	n/a	n/a	n/a	n/a
1010.848	1	31	n/a	n/a	1	n/a	n/a	n/a	n/a	n/a	n/a	n/a	n/a
1012.8646	1	40	n/a	n/a	1	n/a	n/a	n/a	n/a	n/a	n/a	n/a	n/a
1014.8812	1	10	2444.3	2444.3	1	0	0	1	0.8	0.45911	0.6	0.83643	19
1017.331	1	20	n/a	n/a	1	n/a	n/a	n/a	n/a	n/a	n/a	n/a	n/a
1018.521	1	80	n/a	n/a	1	n/a	n/a	n/a	n/a	n/a	n/a	n/a	n/a
1018.621	1	80	n/a	n/a	1	n/a	n/a	n/a	n/a	n/a	n/a	n/a	n/a
1018.8308	1	31	n/a	n/a	1	n/a	n/a	n/a	n/a	n/a	n/a	n/a	n/a
1020.8474	1	40	n/a	n/a	1	n/a	n/a	n/a	n/a	n/a	n/a	n/a	n/a
1022.864	1	10	1117.3	1117.3	1	0	0	1	0.8	0.97357	0.1	0.39429	20
1023.9972	1	20	n/a	n/a	1	n/a	n/a	n/a	n/a	n/a	n/a	n/a	n/a
1025.3072	1	80	n/a	n/a	1	n/a	n/a	n/a	n/a	n/a	n/a	n/a	n/a
1025.4072	1	80	n/a	n/a	1	n/a	n/a	n/a	n/a	n/a	n/a	n/a	n/a
1025.6138	1	31	n/a	n/a	1	n/a	n/a	n/a	n/a	n/a	n/a	n/a	n/a
1027.6304	1	40	n/a	n/a	1	n/a	n/a	n/a	n/a	n/a	n/a	n/a	n/a
1037.663	1	10	1261.8	1261.8	1	0	0	1	0	0	0.3	0.3	21
1038.9296	1	20	n/a	n/a	1	n/a	n/a	n/a	n/a	n/a	n/a	n/a	n/a
1040.7496	1	80	n/a	n/a	1	n/a	n/a	n/a	n/a	n/a	n/a	n/a	n/a
1040.8496	1	80	n/a	n/a	1	n/a	n/a	n/a	n/a	n/a	n/a	n/a	n/a
1041.0628	1	31	n/a	n/a	1	n/a	n/a	n/a	n/a	n/a	n/a	n/a	n/a
1043.0794	1	10	949.4	949.4	1	0	0	1	0	0	0.6	0.6	22
1044.046	1	20	n/a	n/a	1	n/a	n/a	n/a	n/a	n/a	n/a	n/a	n/a
1045.454	1	80	n/a	n/a	1	n/a	n/a	n/a	n/a	n/a	n/a	n/a	n/a
1045.554	1	80	n/a	n/a	1	n/a	n/a	n/a	n/a	n/a	n/a	n/a	n/a
1045.7626	1	31	n/a	n/a	1	n/a	n/a	n/a	n/a	n/a	n/a	n/a	n/a
1047.7792	1	10	1417.6	1417.6	1	0	0	1	0	0	0.1	0.1	23
1049.2124	1	20	n/a	n/a	1	n/a	n/a	n/a	n/a	n/a	n/a	n/a	n/a
1050.5634	1	80	n/a	n/a	1	n/a	n/a	n/a	n/a	n/a	n/a	n/a	n/a
1050.6634	1	80	n/a	n/a	1	n/a	n/a	n/a	n/a	n/a	n/a	n/a	n/a
1050.879	1	31	n/a	n/a	1	n/a	n/a	n/a	n/a	n/a	n/a	n/a	n/a
1052.8956	1	10	3149	3149	1	0	0	1	0	0	0.1	0.1	24
1056.062	1	20	n/a	n/a	1	n/a	n/a	n/a	n/a	n/a	n/a	n/a	n/a
1057.216	1	80	n/a	n/a	1	n/a	n/a	n/a	n/a	n/a	n/a	n/a	n/a
1057.316	1	80	n/a	n/a	1	n/a	n/a	n/a	n/a	n/a	n/a	n/a	n/a
1057.5286	1	31	n/a	n/a	1	n/a	n/a	n/a	n/a	n/a	n/a	n/a	n/a
1059.5452	1	10	2451.3	2451.3	1	0	0	1	0	0	0.7	0.7	25
1062.0116	1	20	n/a	n/a	1	n/a	n/a	n/a	n/a	n/a	n/a	n/a	n/a
1063.7876	1	80	n/a	n/a	1	n/a	n/a	n/a	n/a	n/a	n/a	n/a	n/a
1063.8876	1	80	n/a	n/a	1	n/a	n/a	n/a	n/a	n/a	n/a	n/a	n/a
1064.0948	1	30	n/a	n/a	1	n/a	n/a	n/a	n/a	n/a	n/a	n/a	n/a
1066.1114	1	10	1244.9	1244.9	1	0	0	1	0	0	0.9	0.9	26
1067.3614	1	20	n/a	n/a	1	n/a	n/a	n/a	n/a	n/a	n/a	n/a	n/a
1068.4414	1	80	n/a	n/a	1	n/a	n/a	n/a	n/a	n/a	n/a	n/a	n/a
1068.5414	1	80	n/a	n/a	1	n/a	n/a	n/a	n/a	n/a	n/a	n/a	n/a
1068.7446	1	31	n/a	n/a	1	n/a	n/a	n/a	n/a	n/a	n/a	n/a	n/a
1070.7612	1	10	2019	2019	1	0	0	1	0	0	0.9	0.9	27
1072.7944	1	20	n/a	n/a	1	n/a	n/a	n/a	n/a	n/a	n/a	n/a	n/a
1074.1424	1	80	n/a	n/a	1	n/a	n/a	n/a	n/a	n/a	n/a	n/a	n/a
1074.2424	1	80	n/a	n/a	1	n/a	n/a	n/a	n/a	n/a	n/a	n/a	n/a
1074.4442	1	30	n/a	n/a	1	n/a	n/a	n/a	n/a	n/a	n/a	n/a	n/a
1076.4608	1	10	1903.3	1903.3	1	0	0	1	0	0	0.1	0.1	28
1078.3774	1	20	n/a	n/a	1	n/a	n/a	n/a	n/a	n/a	n/a	n/a	n/a
1079.9674	1	80	n/a	n/a	1	n/a	n/a	n/a	n/a	n/a	n/a	n/a	n/a
1080.0674	1	80	n/a	n/a	1	n/a	n/a	n/a	n/a	n/a	n/a	n/a	n/a
1080.2772	1	31	n/a	n/a	1	n/a	n/a	n/a	n/a	n/a	n/a	n/a	n/a
1082.2938	1	10	2070.1	2070.1	1	0	0	1	0	0	0.3	0.3	29
1084.377	1	20	n/a	n/a	1	n/a	n/a	n/a	n/a	n/a	n/a	n/a	n/a
1085.717	1	80	n/a	n/a	1	n/a	n/a	n/a	n/a	n/a	n/a	n/a	n/a
1085.817	1	80	n/a	n/a	1	n/a	n/a	n/a	n/a	n/a	n/a	n/a	n/a
1086.0268	1	31	n/a	n/a	1	n/a	n/a	n/a	n/a	n/a	n/a	n/a	n/a
1088.0434	1	10	4480.3	4480.3	1	0	0	1	0	0	0.5	0.5	30
1092.5264	1	20	n/a	n/a	1	n/a	n/a	n/a	n/a	n/a	n/a	n/a	n/a
1093.7846	1	80	n/a	n/a	1	n/a	n/a	n/a	n/a	n/a	n/a	n/a	n/a
1093.8846	1	80	n/a	n/a	1	n/a	n/a	n/a	n/a	n/a	n/a	n/a	n/a
1094.093	1	30	n/a	n/a	1	n/a	n/a	n/a	n/a	n/a	n/a	n/a	n/a
1104.1258	1	10	2333.6	2333.6	1	0	0	1	0.8	0.64121	0.1	0.0625	31
1106.4756	1	20	n/a	n/a	1	n/a	n/a	n/a	n/a	n/a	n/a	n/a	n/a
1107.7916	1	80	n/a	n/a	1	n/a	n/a	n/a	n/a	n/a	n/a	n/a	n/a
1107.8916	1	80	n/a	n/a	1	n/a	n/a	n/a	n/a	n/a	n/a	n/a	n/a
1108.1088	1	31	n/a	n/a	1	n/a	n/a	n/a	n/a	n/a	n/a	n/a	n/a
1110.1254	1	40	n/a	n/a	1	n/a	n/a	n/a	n/a	n/a	n/a	n/a	n/a
1112.142	1	10	1053.2	1053.2	1	0	0	1	0.6	0.6393	0.1	0.03125	32
1113.2086	1	20	n/a	n/a	1	n/a	n/a	n/a	n/a	n/a	n/a	n/a	n/a
1114.5776	1	80	n/a	n/a	1	n/a	n/a	n/a	n/a	n/a	n/a	n/a	n/a
1114.6776	1	80	n/a	n/a	1	n/a	n/a	n/a	n/a	n/a	n/a	n/a	n/a
1114.8918	1	31	n/a	n/a	1	n/a	n/a	n/a	n/a	n/a	n/a	n/a	n/a
1116.9084	1	40	n/a	n/a	1	n/a	n/a	n/a	n/a	n/a	n/a	n/a	n/a
1118.925	1	10	3358.1	3358.1	1	0	0	1	0.6	0.65236	0.5	0.72854	33
1122.2914	1	20	n/a	n/a	1	n/a	n/a	n/a	n/a	n/a	n/a	n/a	n/a
1124.1704	1	80	n/a	n/a	1	n/a	n/a	n/a	n/a	n/a	n/a	n/a	n/a
1124.2704	1	80	n/a	n/a	1	n/a	n/a	n/a	n/a	n/a	n/a	n/a	n/a
1124.4746	1	31	n/a	n/a	1	n/a	n/a	n/a	n/a	n/a	n/a	n/a	n/a
1126.4912	1	40	n/a	n/a	1	n/a	n/a	n/a	n/a	n/a	n/a	n/a	n/a
1128.5076	1	10	3663.1	3663.1	1	0	0	1	0.5	0.22903	0.7	0.62903	34
1132.1742	1	20	n/a	n/a	1	n/a	n/a	n/a	n/a	n/a	n/a	n/a	n/a
1133.9862	1	80	n/a	n/a	1	n/a	n/a	n/a	n/a	n/a	n/a	n/a	n/a
1134.0862	1	80	n/a	n/a	1	n/a	n/a	n/a	n/a	n/a	n/a	n/a	n/a
1134.2906	1	31	n/a	n/a	1	n/a	n/a	n/a	n/a	n/a	n/a	n/a	n/a
1136.3072	1	40	n/a	n/a	1	n/a	n/a	n/a	n/a	n/a	n/a	n/a	n/a
1138.3238	1	10	1190.9	1190.9	1	0	0	1	0.7	0.83551	0.4	0.94953	35
1139.5236	1	20	n/a	n/a	1	n/a	n/a	n/a	n/a	n/a	n/a	n/a	n/a
1140.9188	1	80	n/a	n/a	1	n/a	n/a	n/a	n/a	n/a	n/a	n/a	n/a
1141.0188	1	80	n/a	n/a	1	n/a	n/a	n/a	n/a	n/a	n/a	n/a	n/a
1141.2236	1	30	n/a	n/a	1	n/a	n/a	n/a	n/a	n/a	n/a	n/a	n/a
1143.2402	1	40	n/a	n/a	1	n/a	n/a	n/a	n/a	n/a	n/a	n/a	n/a
1145.2566	1	10	2545.8	2545.8	1	0	0	1	0.6	0.22422	0.6	0.33633	36
1147.8066	1	20	n/a	n/a	1	n/a	n/a	n/a	n/a	n/a	n/a	n/a	n/a
1149.2586	1	80	n/a	n/a	1	n/a	n/a	n/a	n/a	n/a	n/a	n/a	n/a
1149.3586	1	80	n/a	n/a	1	n/a	n/a	n/a	n/a	n/a	n/a	n/a	n/a
1149.573	1	30	n/a	n/a	1	n/a	n/a	n/a	n/a	n/a	n/a	n/a	n/a
1151.5896	1	40	n/a	n/a	1	n/a	n/a	n/a	n/a	n/a	n/a	n/a	n/a
1153.6062	1	10	1044.1	1044.1	1	0	0	1	0.5	0.041247	0.7	0.44125	37
1154.6562	1	20	n/a	n/a	1	n/a	n/a	n/a	n/a	n/a	n/a	n/a	n/a
1155.7002	1	80	n/a	n/a	1	n/a	n/a	n/a	n/a	n/a	n/a	n/a	n/a
1155.8002	1	80	n/a	n/a	1	n/a	n/a	n/a	n/a	n/a	n/a	n/a	n/a
1156.006	1	31	n/a	n/a	1	n/a	n/a	n/a	n/a	n/a	n/a	n/a	n/a
1158.0226	1	40	n/a	n/a	1	n/a	n/a	n/a	n/a	n/a	n/a	n/a	n/a
1160.0392	1	10	1107	1107	1	0	0	1	0.4	0.051093	0.9	0.8674	38
1161.1558	1	20	n/a	n/a	1	n/a	n/a	n/a	n/a	n/a	n/a	n/a	n/a
1162.2908	1	80	n/a	n/a	1	n/a	n/a	n/a	n/a	n/a	n/a	n/a	n/a
1162.3908	1	80	n/a	n/a	1	n/a	n/a	n/a	n/a	n/a	n/a	n/a	n/a
1162.6056	1	31	n/a	n/a	1	n/a	n/a	n/a	n/a	n/a	n/a	n/a	n/a
1164.6222	1	40	n/a	n/a	1	n/a	n/a	n/a	n/a	n/a	n/a	n/a	n/a
1166.6388	1	10	1019.2	1019.2	1	0	0	1	0.8	0.043535	0.9	0.67414	39
1167.672	1	20	n/a	n/a	1	n/a	n/a	n/a	n/a	n/a	n/a	n/a	n/a
1168.913	1	80	n/a	n/a	1	n/a	n/a	n/a	n/a	n/a	n/a	n/a	n/a
1169.013	1	80	n/a	n/a	1	n/a	n/a	n/a	n/a	n/a	n/a	n/a	n/a
1169.222	1	31	n/a	n/a	1	n/a	n/a	n/a	n/a	n/a	n/a	n/a	n/a
1171.2384	1	40	n/a	n/a	1	n/a	n/a	n/a	n/a	n/a	n/a	n/a	n/a
1173.255	1	10	962.8	962.8	1	0	0	1	0.7	0.07927	0.7	0.18496	40
1174.2216	1	20	n/a	n/a	1	n/a	n/a	n/a	n/a	n/a	n/a	n/a	n/a
1176.2086	1	80	n/a	n/a	1	n/a	n/a	n/a	n/a	n/a	n/a	n/a	n/a
1176.3086	1	80	n/a	n/a	1	n/a	n/a	n/a	n/a	n/a	n/a	n/a	n/a
1176.5214	1	31	n/a	n/a	1	n/a	n/a	n/a	n/a	n/a	n/a	n/a	n/a
1178.538	1	40	n/a	n/a	1	n/a	n/a	n/a	n/a	n/a	n/a	n/a	n/a
1364.7606	1	10	6054.6	6054.6	1	0	0	1	0	0	0.9	0.9	1
1370.827	1	20	n/a	n/a	1	n/a	n/a	n/a	n/a	n/a	n/a	n/a	n/a
1371.883	1	80	n/a	n/a	1	n/a	n/a	n/a	n/a	n/a	n/a	n/a	n/a
1371.983	1	80	n/a	n/a	1	n/a	n/a	n/a	n/a	n/a	n/a	n/a	n/a
1372.1936	1	31	n/a	n/a	1	n/a	n/a	n/a	n/a	n/a	n/a	n/a	n/a
1374.21	1	10	1837	1837	1	0	0	1	0	0	0.5	0.5	2
1376.06	1	20	n/a	n/a	1	n/a	n/a	n/a	n/a	n/a	n/a	n/a	n/a
1377.336	1	80	n/a	n/a	1	n/a	n/a	n/a	n/a	n/a	n/a	n/a	n/a
1377.436	1	80	n/a	n/a	1	n/a	n/a	n/a	n/a	n/a	n/a	n/a	n/a
1377.6432	1	31	n/a	n/a	1	n/a	n/a	n/a	n/a	n/a	n/a	n/a	n/a
1379.6598	1	10	1715.2	1715.2	1	0	0	1	0	0	0.9	0.9	3
1381.393	1	20	n/a	n/a	1	n/a	n/a	n/a	n/a	n/a	n/a	n/a	n/a
1383.253	1	80	n/a	n/a	1	n/a	n/a	n/a	n/a	n/a	n/a	n/a	n/a
1383.353	1	80	n/a	n/a	1	n/a	n/a	n/a	n/a	n/a	n/a	n/a	n/a
1383.5596	1	31	n/a	n/a	1	n/a	n/a	n/a	n/a	n/a	n/a	n/a	n/a
1385.576	1	10	1910.7	1910.7	1	0	0	1	0	0	0.1	0.1	4
1387.4926	1	20	n/a	n/a	1	n/a	n/a	n/a	n/a	n/a	n/a	n/a	n/a
1388.8536	1	80	n/a	n/a	1	n/a	n/a	n/a	n/a	n/a	n/a	n/a	n/a
1388.9536	1	80	n/a	n/a	1	n/a	n/a	n/a	n/a	n/a	n/a	n/a	n/a
1389.1592	1	31	n/a	n/a	1	n/a	n/a	n/a	n/a	n/a	n/a	n/a	n/a
1391.1758	1	10	1527	1527	1	0	0	1	0	0	0.7	0.7	5
1392.709	1	20	n/a	n/a	1	n/a	n/a	n/a	n/a	n/a	n/a	n/a	n/a
1394.017	1	80	n/a	n/a	1	n/a	n/a	n/a	n/a	n/a	n/a	n/a	n/a
1394.117	1	80	n/a	n/a	1	n/a	n/a	n/a	n/a	n/a	n/a	n/a	n/a
1394.3256	1	30	n/a	n/a	1	n/a	n/a	n/a	n/a	n/a	n/a	n/a	n/a
1396.342	1	10	1960.5	1960.5	1	0	0	1	0	0	0.3	0.3	6
1398.3086	1	20	n/a	n/a	1	n/a	n/a	n/a	n/a	n/a	n/a	n/a	n/a
1400.2696	1	80	n/a	n/a	1	n/a	n/a	n/a	n/a	n/a	n/a	n/a	n/a
1400.3696	1	80	n/a	n/a	1	n/a	n/a	n/a	n/a	n/a	n/a	n/a	n/a
1400.5752	1	31	n/a	n/a	1	n/a	n/a	n/a	n/a	n/a	n/a	n/a	n/a
1402.5918	1	10	1710.8	1710.8	1	0	0	1	0	0	0.5	0.5	7
1404.3082	1	20	n/a	n/a	1	n/a	n/a	n/a	n/a	n/a	n/a	n/a	n/a
1405.6674	1	80	n/a	n/a	1	n/a	n/a	n/a	n/a	n/a	n/a	n/a	n/a
1405.7672	1	80	n/a	n/a	1	n/a	n/a	n/a	n/a	n/a	n/a	n/a	n/a
1405.9748	1	30	n/a	n/a	1	n/a	n/a	n/a	n/a	n/a	n/a	n/a	n/a
1407.9914	1	10	1255	1255	1	0	0	1	0	0	0.2	0.2	8
1409.258	1	20	n/a	n/a	1	n/a	n/a	n/a	n/a	n/a	n/a	n/a	n/a
1411.044	1	80	n/a	n/a	1	n/a	n/a	n/a	n/a	n/a	n/a	n/a	n/a
1411.144	1	80	n/a	n/a	1	n/a	n/a	n/a	n/a	n/a	n/a	n/a	n/a
1411.3578	1	31	n/a	n/a	1	n/a	n/a	n/a	n/a	n/a	n/a	n/a	n/a
1413.3744	1	10	1423.8	1423.8	1	0	0	1	0	0	0.8	0.8	9
1414.8076	1	20	n/a	n/a	1	n/a	n/a	n/a	n/a	n/a	n/a	n/a	n/a
1415.9046	1	80	n/a	n/a	1	n/a	n/a	n/a	n/a	n/a	n/a	n/a	n/a
1416.0046	1	80	n/a	n/a	1	n/a	n/a	n/a	n/a	n/a	n/a	n/a	n/a
1416.2076	1	30	n/a	n/a	1	n/a	n/a	n/a	n/a	n/a	n/a	n/a	n/a
1418.2242	1	10	1933.9	1933.9	1	0	0	1	0	0	0.5	0.5	10
1420.174	1	20	n/a	n/a	1	n/a	n/a	n/a	n/a	n/a	n/a	n/a	n/a
1421.381	1	80	n/a	n/a	1	n/a	n/a	n/a	n/a	n/a	n/a	n/a	n/a
1421.481	1	80	n/a	n/a	1	n/a	n/a	n/a	n/a	n/a	n/a	n/a	n/a
1421.6906	1	31	n/a	n/a	1	n/a	n/a	n/a	n/a	n/a	n/a	n/a	n/a
1431.7234	1	10	2258.5	2258.5	1	0	0	1	0.5	0.88848	0.1	0.088483	11
1433.9898	1	20	n/a	n/a	1	n/a	n/a	n/a	n/a	n/a	n/a	n/a	n/a
1435.2078	1	80	n/a	n/a	1	n/a	n/a	n/a	n/a	n/a	n/a	n/a	n/a
1435.3078	1	80	n/a	n/a	1	n/a	n/a	n/a	n/a	n/a	n/a	n/a	n/a
1435.523	1	31	n/a	n/a	1	n/a	n/a	n/a	n/a	n/a	n/a	n/a	n/a
1437.5396	1	40	n/a	n/a	1	n/a	n/a	n/a	n/a	n/a	n/a	n/a	n/a
1439.5562	1	10	2009.5	2009.5	1	0	0	1	0.5	0.042134	0.5	0.042134	12
1441.5728	1	20	n/a	n/a	1	n/a	n/a	n/a	n/a	n/a	n/a	n/a	n/a
1443.2428	1	80	n/a	n/a	1	n/a	n/a	n/a	n/a	n/a	n/a	n/a	n/a
1443.3428	1	80	n/a	n/a	1	n/a	n/a	n/a	n/a	n/a	n/a	n/a	n/a
1443.556	1	30	n/a	n/a	1	n/a	n/a	n/a	n/a	n/a	n/a	n/a	n/a
1445.5724	1	40	n/a	n/a	1	n/a	n/a	n/a	n/a	n/a	n/a	n/a	n/a
1447.589	1	10	2008.3	2008.3	1	0	0	1	0.4	0.91612	0.1	0.11075	13
1449.6056	1	20	n/a	n/a	1	n/a	n/a	n/a	n/a	n/a	n/a	n/a	n/a
1451.1026	1	80	n/a	n/a	1	n/a	n/a	n/a	n/a	n/a	n/a	n/a	n/a
1451.2026	1	80	n/a	n/a	1	n/a	n/a	n/a	n/a	n/a	n/a	n/a	n/a
1451.4054	1	31	n/a	n/a	1	n/a	n/a	n/a	n/a	n/a	n/a	n/a	n/a
1453.422	1	40	n/a	n/a	1	n/a	n/a	n/a	n/a	n/a	n/a	n/a	n/a
1455.4386	1	10	1822.6	1822.6	1	0	0	1	0.7	0.75205	0.1	0.041667	14
1457.2718	1	20	n/a	n/a	1	n/a	n/a	n/a	n/a	n/a	n/a	n/a	n/a
1458.2718	1	80	n/a	n/a	1	n/a	n/a	n/a	n/a	n/a	n/a	n/a	n/a
1458.3718	1	80	n/a	n/a	1	n/a	n/a	n/a	n/a	n/a	n/a	n/a	n/a
1458.5884	1	31	n/a	n/a	1	n/a	n/a	n/a	n/a	n/a	n/a	n/a	n/a
1460.605	1	40	n/a	n/a	1	n/a	n/a	n/a	n/a	n/a	n/a	n/a	n/a
1462.6214	1	10	1791.6	1791.6	1	0	0	1	0.8	0.22679	0.8	0.90716	15
1464.4214	1	20	n/a	n/a	1	n/a	n/a	n/a	n/a	n/a	n/a	n/a	n/a
1465.6234	1	80	n/a	n/a	1	n/a	n/a	n/a	n/a	n/a	n/a	n/a	n/a
1465.7234	1	80	n/a	n/a	1	n/a	n/a	n/a	n/a	n/a	n/a	n/a	n/a
1465.938	1	30	n/a	n/a	1	n/a	n/a	n/a	n/a	n/a	n/a	n/a	n/a
1467.9544	1	40	n/a	n/a	1	n/a	n/a	n/a	n/a	n/a	n/a	n/a	n/a
1469.971	1	10	2025.8	2025.8	1	0	0	1	0.6	0.98925	0.9	0.96875	16
1472.0042	1	20	n/a	n/a	1	n/a	n/a	n/a	n/a	n/a	n/a	n/a	n/a
1473.2152	1	80	n/a	n/a	1	n/a	n/a	n/a	n/a	n/a	n/a	n/a	n/a
1473.3152	1	80	n/a	n/a	1	n/a	n/a	n/a	n/a	n/a	n/a	n/a	n/a
1473.5208	1	31	n/a	n/a	1	n/a	n/a	n/a	n/a	n/a	n/a	n/a	n/a
1475.5374	1	40	n/a	n/a	1	n/a	n/a	n/a	n/a	n/a	n/a	n/a	n/a
1477.554	1	10	1578.8	1578.8	1	0	0	1	0.5	0.94414	0.5	0.94414	17
1479.1372	1	20	n/a	n/a	1	n/a	n/a	n/a	n/a	n/a	n/a	n/a	n/a
1480.6672	1	80	n/a	n/a	1	n/a	n/a	n/a	n/a	n/a	n/a	n/a	n/a
1480.7672	1	80	n/a	n/a	1	n/a	n/a	n/a	n/a	n/a	n/a	n/a	n/a
1480.9704	1	30	n/a	n/a	1	n/a	n/a	n/a	n/a	n/a	n/a	n/a	n/a
1482.987	1	40	n/a	n/a	1	n/a	n/a	n/a	n/a	n/a	n/a	n/a	n/a
1485.0034	1	10	1233	1233	1	0	0	1	0.6	0.9877	0.1	0.23155	18
1486.2534	1	20	n/a	n/a	1	n/a	n/a	n/a	n/a	n/a	n/a	n/a	n/a
1487.3084	1	80	n/a	n/a	1	n/a	n/a	n/a	n/a	n/a	n/a	n/a	n/a
1487.4084	1	80	n/a	n/a	1	n/a	n/a	n/a	n/a	n/a	n/a	n/a	n/a
1487.62	1	30	n/a	n/a	1	n/a	n/a	n/a	n/a	n/a	n/a	n/a	n/a
1489.6366	1	40	n/a	n/a	1	n/a	n/a	n/a	n/a	n/a	n/a	n/a	n/a
1491.653	1	10	983.4	983.4	1	0	0	1	0.6	0.91867	0.1	0.12801	19
1492.653	1	20	n/a	n/a	1	n/a	n/a	n/a	n/a	n/a	n/a	n/a	n/a
1494.346	1	80	n/a	n/a	1	n/a	n/a	n/a	n/a	n/a	n/a	n/a	n/a
1494.446	1	80	n/a	n/a	1	n/a	n/a	n/a	n/a	n/a	n/a	n/a	n/a
1494.6528	1	31	n/a	n/a	1	n/a	n/a	n/a	n/a	n/a	n/a	n/a	n/a
1496.6694	1	40	n/a	n/a	1	n/a	n/a	n/a	n/a	n/a	n/a	n/a	n/a
1498.686	1	10	2206.3	2206.3	1	0	0	1	0.7	0.33829	0.1	0.041667	20
1500.9026	1	20	n/a	n/a	1	n/a	n/a	n/a	n/a	n/a	n/a	n/a	n/a
1502.0986	1	80	n/a	n/a	1	n/a	n/a	n/a	n/a	n/a	n/a	n/a	n/a
1502.1986	1	80	n/a	n/a	1	n/a	n/a	n/a	n/a	n/a	n/a	n/a	n/a
1502.4024	1	31	n/a	n/a	1	n/a	n/a	n/a	n/a	n/a	n/a	n/a	n/a
1504.419	1	40	n/a	n/a	1	n/a	n/a	n/a	n/a	n/a	n/a	n/a	n/a
1514.4518	1	10	1496.1	1496.1	1	0	0	1	0	0	0.2	0.2	21
1515.9516	1	20	n/a	n/a	1	n/a	n/a	n/a	n/a	n/a	n/a	n/a	n/a
1517.3886	1	80	n/a	n/a	1	n/a	n/a	n/a	n/a	n/a	n/a	n/a	n/a
1517.4886	1	80	n/a	n/a	1	n/a	n/a	n/a	n/a	n/a	n/a	n/a	n/a
1517.7016	1	31	n/a	n/a	1	n/a	n/a	n/a	n/a	n/a	n/a	n/a	n/a
1519.718	1	10	1573.7	1573.7	1	0	0	1	0	0	0.4	0.4	22
1521.3014	1	20	n/a	n/a	1	n/a	n/a	n/a	n/a	n/a	n/a	n/a	n/a
1522.7694	1	80	n/a	n/a	1	n/a	n/a	n/a	n/a	n/a	n/a	n/a	n/a
1522.8694	1	80	n/a	n/a	1	n/a	n/a	n/a	n/a	n/a	n/a	n/a	n/a
1523.0846	1	31	n/a	n/a	1	n/a	n/a	n/a	n/a	n/a	n/a	n/a	n/a
1525.101	1	10	2062.5	2062.5	1	0	0	1	0	0	0.4	0.4	23
1527.1676	1	20	n/a	n/a	1	n/a	n/a	n/a	n/a	n/a	n/a	n/a	n/a
1528.5216	1	80	n/a	n/a	1	n/a	n/a	n/a	n/a	n/a	n/a	n/a	n/a
1528.6216	1	80	n/a	n/a	1	n/a	n/a	n/a	n/a	n/a	n/a	n/a	n/a
1528.8342	1	31	n/a	n/a	1	n/a	n/a	n/a	n/a	n/a	n/a	n/a	n/a
1530.8508	1	10	2872.8	2872.8	1	0	0	1	0	0	0.6	0.6	24
1533.7338	1	20	n/a	n/a	1	n/a	n/a	n/a	n/a	n/a	n/a	n/a	n/a
1534.87	1	80	n/a	n/a	1	n/a	n/a	n/a	n/a	n/a	n/a	n/a	n/a
1534.97	1	80	n/a	n/a	1	n/a	n/a	n/a	n/a	n/a	n/a	n/a	n/a
1535.1838	1	30	n/a	n/a	1	n/a	n/a	n/a	n/a	n/a	n/a	n/a	n/a
1537.2004	1	10	1659	1659	1	0	0	1	0	0	0.8	0.8	25
1538.867	1	20	n/a	n/a	1	n/a	n/a	n/a	n/a	n/a	n/a	n/a	n/a
1540.491	1	80	n/a	n/a	1	n/a	n/a	n/a	n/a	n/a	n/a	n/a	n/a
1540.591	1	80	n/a	n/a	1	n/a	n/a	n/a	n/a	n/a	n/a	n/a	n/a
1540.8002	1	31	n/a	n/a	1	n/a	n/a	n/a	n/a	n/a	n/a	n/a	n/a
1542.8166	1	10	2314.5	2314.5	1	0	0	1	0	0	0.3	0.3	26
1545.1498	1	20	n/a	n/a	1	n/a	n/a	n/a	n/a	n/a	n/a	n/a	n/a
1546.557	1	80	n/a	n/a	1	n/a	n/a	n/a	n/a	n/a	n/a	n/a	n/a
1546.657	1	80	n/a	n/a	1	n/a	n/a	n/a	n/a	n/a	n/a	n/a	n/a
1546.8664	1	31	n/a	n/a	1	n/a	n/a	n/a	n/a	n/a	n/a	n/a	n/a
1548.883	1	10	1336.1	1336.1	1	0	0	1	0	0	0.9	0.9	27
1550.233	1	20	n/a	n/a	1	n/a	n/a	n/a	n/a	n/a	n/a	n/a	n/a
1551.383	1	80	n/a	n/a	1	n/a	n/a	n/a	n/a	n/a	n/a	n/a	n/a
1551.483	1	80	n/a	n/a	1	n/a	n/a	n/a	n/a	n/a	n/a	n/a	n/a
1551.6994	1	31	n/a	n/a	1	n/a	n/a	n/a	n/a	n/a	n/a	n/a	n/a
1553.716	1	10	567	567	1	0	0	1	0	0	0.9	0.9	28
1554.2994	1	20	n/a	n/a	1	n/a	n/a	n/a	n/a	n/a	n/a	n/a	n/a
1555.4874	1	80	n/a	n/a	1	n/a	n/a	n/a	n/a	n/a	n/a	n/a	n/a
1555.5874	1	80	n/a	n/a	1	n/a	n/a	n/a	n/a	n/a	n/a	n/a	n/a
1555.7992	1	31	n/a	n/a	1	n/a	n/a	n/a	n/a	n/a	n/a	n/a	n/a
1557.8158	1	10	499.1	499.1	1	0	0	1	0	0	0.9	0.9	29
1558.3324	1	20	n/a	n/a	1	n/a	n/a	n/a	n/a	n/a	n/a	n/a	n/a
1559.6884	1	80	n/a	n/a	1	n/a	n/a	n/a	n/a	n/a	n/a	n/a	n/a
1559.7884	1	80	n/a	n/a	1	n/a	n/a	n/a	n/a	n/a	n/a	n/a	n/a
1559.999	1	31	n/a	n/a	1	n/a	n/a	n/a	n/a	n/a	n/a	n/a	n/a
1562.0156	1	10	491.3	491.3	1	0	0	1	0	0	0.1	0.1	30
1562.5156	1	20	n/a	n/a	1	n/a	n/a	n/a	n/a	n/a	n/a	n/a	n/a
1563.5556	1	80	n/a	n/a	1	n/a	n/a	n/a	n/a	n/a	n/a	n/a	n/a
1563.6556	1	80	n/a	n/a	1	n/a	n/a	n/a	n/a	n/a	n/a	n/a	n/a
1563.8654	1	31	n/a	n/a	1	n/a	n/a	n/a	n/a	n/a	n/a	n/a	n/a
1573.8982	1	10	752.4	752.4	1	0	0	1	0.7	0.014282	0.8	0.36666	31
1574.6648	1	20	n/a	n/a	1	n/a	n/a	n/a	n/a	n/a	n/a	n/a	n/a
1576.4488	1	80	n/a	n/a	1	n/a	n/a	n/a	n/a	n/a	n/a	n/a	n/a
1576.5488	1	80	n/a	n/a	1	n/a	n/a	n/a	n/a	n/a	n/a	n/a	n/a
1576.7646	1	31	n/a	n/a	1	n/a	n/a	n/a	n/a	n/a	n/a	n/a	n/a
1578.7812	1	40	n/a	n/a	1	n/a	n/a	n/a	n/a	n/a	n/a	n/a	n/a
1580.7978	1	10	652.7	652.7	1	0	0	1	0.8	0.67069	0.4	0.68277	32
1581.4644	1	20	n/a	n/a	1	n/a	n/a	n/a	n/a	n/a	n/a	n/a	n/a
1582.7384	1	80	n/a	n/a	1	n/a	n/a	n/a	n/a	n/a	n/a	n/a	n/a
1582.8384	1	80	n/a	n/a	1	n/a	n/a	n/a	n/a	n/a	n/a	n/a	n/a
1583.0476	1	30	n/a	n/a	1	n/a	n/a	n/a	n/a	n/a	n/a	n/a	n/a
1585.0642	1	40	n/a	n/a	1	n/a	n/a	n/a	n/a	n/a	n/a	n/a	n/a
1587.0808	1	10	561.5	561.5	1	0	0	1	0.7	0.83307	0.2	0.27716	33
1587.6474	1	20	n/a	n/a	1	n/a	n/a	n/a	n/a	n/a	n/a	n/a	n/a
1589.5684	1	80	n/a	n/a	1	n/a	n/a	n/a	n/a	n/a	n/a	n/a	n/a
1589.6684	1	80	n/a	n/a	1	n/a	n/a	n/a	n/a	n/a	n/a	n/a	n/a
1589.8806	1	30	n/a	n/a	1	n/a	n/a	n/a	n/a	n/a	n/a	n/a	n/a
1591.8972	1	40	n/a	n/a	1	n/a	n/a	n/a	n/a	n/a	n/a	n/a	n/a
1593.9136	1	10	528.4	528.4	1	0	0	1	0.5	0.093358	0.5	0.093358	34
1594.447	1	20	n/a	n/a	1	n/a	n/a	n/a	n/a	n/a	n/a	n/a	n/a
1596.158	1	80	n/a	n/a	1	n/a	n/a	n/a	n/a	n/a	n/a	n/a	n/a
1596.258	1	80	n/a	n/a	1	n/a	n/a	n/a	n/a	n/a	n/a	n/a	n/a
1596.4634	1	30	n/a	n/a	1	n/a	n/a	n/a	n/a	n/a	n/a	n/a	n/a
1598.48	1	40	n/a	n/a	1	n/a	n/a	n/a	n/a	n/a	n/a	n/a	n/a
1600.4966	1	10	665.3	665.3	1	0	0	1	0.8	0.96716	0.2	0.86864	35
1601.1798	1	20	n/a	n/a	1	n/a	n/a	n/a	n/a	n/a	n/a	n/a	n/a
1602.931	1	80	n/a	n/a	1	n/a	n/a	n/a	n/a	n/a	n/a	n/a	n/a
1603.031	1	80	n/a	n/a	1	n/a	n/a	n/a	n/a	n/a	n/a	n/a	n/a
1603.2464	1	30	n/a	n/a	1	n/a	n/a	n/a	n/a	n/a	n/a	n/a	n/a
1605.263	1	40	n/a	n/a	1	n/a	n/a	n/a	n/a	n/a	n/a	n/a	n/a
1607.2796	1	10	826.2	826.2	1	0	0	1	0.4	0.98113	0.1	0.15408	36
1608.1128	1	20	n/a	n/a	1	n/a	n/a	n/a	n/a	n/a	n/a	n/a	n/a
1609.2738	1	80	n/a	n/a	1	n/a	n/a	n/a	n/a	n/a	n/a	n/a	n/a
1609.3738	1	80	n/a	n/a	1	n/a	n/a	n/a	n/a	n/a	n/a	n/a	n/a
1609.5794	1	31	n/a	n/a	1	n/a	n/a	n/a	n/a	n/a	n/a	n/a	n/a
1611.596	1	40	n/a	n/a	1	n/a	n/a	n/a	n/a	n/a	n/a	n/a	n/a
1613.6124	1	10	509.2	509.2	1	0	0	1	0.8	0.22769	0.3	0.0625	37
1614.1292	1	20	n/a	n/a	1	n/a	n/a	n/a	n/a	n/a	n/a	n/a	n/a
1615.7912	1	80	n/a	n/a	1	n/a	n/a	n/a	n/a	n/a	n/a	n/a	n/a
1615.8912	1	80	n/a	n/a	1	n/a	n/a	n/a	n/a	n/a	n/a	n/a	n/a
1616.0956	1	30	n/a	n/a	1	n/a	n/a	n/a	n/a	n/a	n/a	n/a	n/a
1618.1122	1	40	n/a	n/a	1	n/a	n/a	n/a	n/a	n/a	n/a	n/a	n/a
1620.1288	1	10	888.7	888.7	1	0	0	1	0.8	0.93556	0.1	0.24223	38
1621.0288	1	20	n/a	n/a	1	n/a	n/a	n/a	n/a	n/a	n/a	n/a	n/a
1622.5948	1	80	n/a	n/a	1	n/a	n/a	n/a	n/a	n/a	n/a	n/a	n/a
1622.6948	1	80	n/a	n/a	1	n/a	n/a	n/a	n/a	n/a	n/a	n/a	n/a
1622.912	1	30	n/a	n/a	1	n/a	n/a	n/a	n/a	n/a	n/a	n/a	n/a
1624.9284	1	40	n/a	n/a	1	n/a	n/a	n/a	n/a	n/a	n/a	n/a	n/a
1626.945	1	10	488.3	488.3	1	0	0	1	0.5	0.94308	0.1	0.14308	39
1627.445	1	20	n/a	n/a	1	n/a	n/a	n/a	n/a	n/a	n/a	n/a	n/a
1629.288	1	80	n/a	n/a	1	n/a	n/a	n/a	n/a	n/a	n/a	n/a	n/a
1629.388	1	80	n/a	n/a	1	n/a	n/a	n/a	n/a	n/a	n/a	n/a	n/a
1629.5948	1	31	n/a	n/a	1	n/a	n/a	n/a	n/a	n/a	n/a	n/a	n/a
1631.6114	1	40	n/a	n/a	1	n/a	n/a	n/a	n/a	n/a	n/a	n/a	n/a
1633.628	1	10	477.2	477.2	1	0	0	1	0.4	0.62046	0.1	0.020833	40
1634.1112	1	20	n/a	n/a	1	n/a	n/a	n/a	n/a	n/a	n/a	n/a	n/a
1635.9622	1	80	n/a	n/a	1	n/a	n/a	n/a	n/a	n/a	n/a	n/a	n/a
1636.0622	1	80	n/a	n/a	1	n/a	n/a	n/a	n/a	n/a	n/a	n/a	n/a
1636.2778	1	31	n/a	n/a	1	n/a	n/a	n/a	n/a	n/a	n/a	n/a	n/a
1638.2944	1	40	n/a	n/a	1	n/a	n/a	n/a	n/a	n/a	n/a	n/a	n/a
1756.5706	1	10	923.7	923.7	1	0	1	0	0	0	0.6	0.6	1
1757.504	1	20	n/a	n/a	1	n/a	n/a	n/a	n/a	n/a	n/a	n/a	n/a
1758.862	1	80	n/a	n/a	1	n/a	n/a	n/a	n/a	n/a	n/a	n/a	n/a
1758.962	1	80	n/a	n/a	1	n/a	n/a	n/a	n/a	n/a	n/a	n/a	n/a
1759.1704	1	30	n/a	n/a	1	n/a	n/a	n/a	n/a	n/a	n/a	n/a	n/a
1761.187	1	10	531.3	531.3	1	0	1	0	0	0	0.7	0.7	2
1761.737	1	20	n/a	n/a	1	n/a	n/a	n/a	n/a	n/a	n/a	n/a	n/a
1762.8672	1	80	n/a	n/a	1	n/a	n/a	n/a	n/a	n/a	n/a	n/a	n/a
1762.9672	1	80	n/a	n/a	1	n/a	n/a	n/a	n/a	n/a	n/a	n/a	n/a
1763.1702	1	31	n/a	n/a	1	n/a	n/a	n/a	n/a	n/a	n/a	n/a	n/a
1765.1868	1	10	467.4	467.4	1	0	1	0	0	0	0.2	0.2	3
1765.67	1	20	n/a	n/a	1	n/a	n/a	n/a	n/a	n/a	n/a	n/a	n/a
1767.5992	1	80	n/a	n/a	1	n/a	n/a	n/a	n/a	n/a	n/a	n/a	n/a
1767.6992	1	80	n/a	n/a	1	n/a	n/a	n/a	n/a	n/a	n/a	n/a	n/a
1767.9032	1	30	n/a	n/a	1	n/a	n/a	n/a	n/a	n/a	n/a	n/a	n/a
1769.9198	1	10	374.2	374.2	1	0	1	0	0	0	0.3	0.3	4
1770.3032	1	20	n/a	n/a	1	n/a	n/a	n/a	n/a	n/a	n/a	n/a	n/a
1771.4262	1	80	n/a	n/a	1	n/a	n/a	n/a	n/a	n/a	n/a	n/a	n/a
1771.5262	1	80	n/a	n/a	1	n/a	n/a	n/a	n/a	n/a	n/a	n/a	n/a
1771.7364	1	31	n/a	n/a	1	n/a	n/a	n/a	n/a	n/a	n/a	n/a	n/a
1773.753	1	10	1101	1101	1	0	1	0	0	0	0.8	0.8	5
1774.8696	1	20	n/a	n/a	1	n/a	n/a	n/a	n/a	n/a	n/a	n/a	n/a
1776.5756	1	80	n/a	n/a	1	n/a	n/a	n/a	n/a	n/a	n/a	n/a	n/a
1776.6756	1	80	n/a	n/a	1	n/a	n/a	n/a	n/a	n/a	n/a	n/a	n/a
1776.886	1	31	n/a	n/a	1	n/a	n/a	n/a	n/a	n/a	n/a	n/a	n/a
1778.9026	1	10	415.2	415.2	1	0	1	0	0	0	0.3	0.3	6
1779.336	1	20	n/a	n/a	1	n/a	n/a	n/a	n/a	n/a	n/a	n/a	n/a
1781.107	1	80	n/a	n/a	1	n/a	n/a	n/a	n/a	n/a	n/a	n/a	n/a
1781.207	1	80	n/a	n/a	1	n/a	n/a	n/a	n/a	n/a	n/a	n/a	n/a
1781.4192	1	31	n/a	n/a	1	n/a	n/a	n/a	n/a	n/a	n/a	n/a	n/a
1783.4358	1	10	474.1	474.1	1	0	1	0	0	0	0.5	0.5	7
1783.919	1	20	n/a	n/a	1	n/a	n/a	n/a	n/a	n/a	n/a	n/a	n/a
1785.559	1	80	n/a	n/a	1	n/a	n/a	n/a	n/a	n/a	n/a	n/a	n/a
1785.659	1	80	n/a	n/a	1	n/a	n/a	n/a	n/a	n/a	n/a	n/a	n/a
1785.8688	1	31	n/a	n/a	1	n/a	n/a	n/a	n/a	n/a	n/a	n/a	n/a
1787.8854	1	10	1160.2	1160.2	1	0	1	0	0	0	0.5	0.5	8
1789.052	1	20	n/a	n/a	1	n/a	n/a	n/a	n/a	n/a	n/a	n/a	n/a
1790.568	1	80	n/a	n/a	1	n/a	n/a	n/a	n/a	n/a	n/a	n/a	n/a
1790.668	1	80	n/a	n/a	1	n/a	n/a	n/a	n/a	n/a	n/a	n/a	n/a
1790.8852	1	31	n/a	n/a	1	n/a	n/a	n/a	n/a	n/a	n/a	n/a	n/a
1792.9018	1	10	415.7	415.7	1	0	1	0	0	0	0.9	0.9	9
1793.3352	1	20	n/a	n/a	1	n/a	n/a	n/a	n/a	n/a	n/a	n/a	n/a
1795.2132	1	80	n/a	n/a	1	n/a	n/a	n/a	n/a	n/a	n/a	n/a	n/a
1795.3132	1	80	n/a	n/a	1	n/a	n/a	n/a	n/a	n/a	n/a	n/a	n/a
1795.5184	1	30	n/a	n/a	1	n/a	n/a	n/a	n/a	n/a	n/a	n/a	n/a
1797.5348	1	10	390.6	390.6	1	0	1	0	0	0	0.1	0.1	10
1797.9348	1	20	n/a	n/a	1	n/a	n/a	n/a	n/a	n/a	n/a	n/a	n/a
1799.0268	1	80	n/a	n/a	1	n/a	n/a	n/a	n/a	n/a	n/a	n/a	n/a
1799.1268	1	80	n/a	n/a	1	n/a	n/a	n/a	n/a	n/a	n/a	n/a	n/a
1799.3348	1	31	n/a	n/a	1	n/a	n/a	n/a	n/a	n/a	n/a	n/a	n/a
1809.3676	1	10	2333.6	2333.6	1	0	1	0	0.5	0.67152	0.3	0.27152	11
1811.7174	1	20	n/a	n/a	1	n/a	n/a	n/a	n/a	n/a	n/a	n/a	n/a
1813.1824	1	80	n/a	n/a	1	n/a	n/a	n/a	n/a	n/a	n/a	n/a	n/a
1813.2824	1	80	n/a	n/a	1	n/a	n/a	n/a	n/a	n/a	n/a	n/a	n/a
1813.484	1	31	n/a	n/a	1	n/a	n/a	n/a	n/a	n/a	n/a	n/a	n/a
1815.5004	1	40	n/a	n/a	1	n/a	n/a	n/a	n/a	n/a	n/a	n/a	n/a
1817.517	1	10	599.9	599.9	1	0	1	0	0.4	0.48923	0.7	0.82615	12
1818.1336	1	20	n/a	n/a	1	n/a	n/a	n/a	n/a	n/a	n/a	n/a	n/a
1819.2656	1	80	n/a	n/a	1	n/a	n/a	n/a	n/a	n/a	n/a	n/a	n/a
1819.3656	1	80	n/a	n/a	1	n/a	n/a	n/a	n/a	n/a	n/a	n/a	n/a
1819.5836	1	31	n/a	n/a	1	n/a	n/a	n/a	n/a	n/a	n/a	n/a	n/a
1821.6002	1	40	n/a	n/a	1	n/a	n/a	n/a	n/a	n/a	n/a	n/a	n/a
1823.6166	1	10	388.2	388.2	1	0	1	0	0.4	0.18035	0.6	0.45356	13
1824.0166	1	20	n/a	n/a	1	n/a	n/a	n/a	n/a	n/a	n/a	n/a	n/a
1825.9506	1	80	n/a	n/a	1	n/a	n/a	n/a	n/a	n/a	n/a	n/a	n/a
1826.0506	1	80	n/a	n/a	1	n/a	n/a	n/a	n/a	n/a	n/a	n/a	n/a
1826.2664	1	31	n/a	n/a	1	n/a	n/a	n/a	n/a	n/a	n/a	n/a	n/a
1828.283	1	40	n/a	n/a	1	n/a	n/a	n/a	n/a	n/a	n/a	n/a	n/a
1830.2996	1	10	1801	1801	1	0	1	0	0.8	0.30595	0.7	0.72381	14
1832.1162	1	20	n/a	n/a	1	n/a	n/a	n/a	n/a	n/a	n/a	n/a	n/a
1833.2352	1	80	n/a	n/a	1	n/a	n/a	n/a	n/a	n/a	n/a	n/a	n/a
1833.3352	1	80	n/a	n/a	1	n/a	n/a	n/a	n/a	n/a	n/a	n/a	n/a
1833.5494	1	31	n/a	n/a	1	n/a	n/a	n/a	n/a	n/a	n/a	n/a	n/a
1835.566	1	40	n/a	n/a	1	n/a	n/a	n/a	n/a	n/a	n/a	n/a	n/a
1837.5824	1	10	758	758	1	0	1	0	0.7	0.46277	0.4	0.079796	15
1838.3492	1	20	n/a	n/a	1	n/a	n/a	n/a	n/a	n/a	n/a	n/a	n/a
1840.2232	1	80	n/a	n/a	1	n/a	n/a	n/a	n/a	n/a	n/a	n/a	n/a
1840.3232	1	80	n/a	n/a	1	n/a	n/a	n/a	n/a	n/a	n/a	n/a	n/a
1840.5324	1	30	n/a	n/a	1	n/a	n/a	n/a	n/a	n/a	n/a	n/a	n/a
1842.5488	1	40	n/a	n/a	1	n/a	n/a	n/a	n/a	n/a	n/a	n/a	n/a
1844.5654	1	10	510.9	510.9	1	0	1	0	0.8	0.66833	0.4	0.67331	16
1845.082	1	20	n/a	n/a	1	n/a	n/a	n/a	n/a	n/a	n/a	n/a	n/a
1846.284	1	80	n/a	n/a	1	n/a	n/a	n/a	n/a	n/a	n/a	n/a	n/a
1846.384	1	80	n/a	n/a	1	n/a	n/a	n/a	n/a	n/a	n/a	n/a	n/a
1846.5986	1	30	n/a	n/a	1	n/a	n/a	n/a	n/a	n/a	n/a	n/a	n/a
1848.6152	1	40	n/a	n/a	1	n/a	n/a	n/a	n/a	n/a	n/a	n/a	n/a
1850.6318	1	10	1324.5	1324.5	1	0	1	0	0.6	0.94084	0.2	0.41126	17
1851.965	1	20	n/a	n/a	1	n/a	n/a	n/a	n/a	n/a	n/a	n/a	n/a
1853.649	1	80	n/a	n/a	1	n/a	n/a	n/a	n/a	n/a	n/a	n/a	n/a
1853.749	1	80	n/a	n/a	1	n/a	n/a	n/a	n/a	n/a	n/a	n/a	n/a
1853.9648	1	30	n/a	n/a	1	n/a	n/a	n/a	n/a	n/a	n/a	n/a	n/a
1855.9814	1	40	n/a	n/a	1	n/a	n/a	n/a	n/a	n/a	n/a	n/a	n/a
1857.998	1	10	1670.1	1670.1	1	0	1	0	0.6	0.99965	0.2	0.49947	18
1859.6812	1	20	n/a	n/a	1	n/a	n/a	n/a	n/a	n/a	n/a	n/a	n/a
1861.1642	1	80	n/a	n/a	1	n/a	n/a	n/a	n/a	n/a	n/a	n/a	n/a
1861.2642	1	80	n/a	n/a	1	n/a	n/a	n/a	n/a	n/a	n/a	n/a	n/a
1861.481	1	30	n/a	n/a	1	n/a	n/a	n/a	n/a	n/a	n/a	n/a	n/a
1863.4976	1	40	n/a	n/a	1	n/a	n/a	n/a	n/a	n/a	n/a	n/a	n/a
1865.5142	1	10	1593.7	1593.7	1	0	1	0	0.8	0.68128	0.4	0.72511	19
1867.114	1	20	n/a	n/a	1	n/a	n/a	n/a	n/a	n/a	n/a	n/a	n/a
1868.344	1	80	n/a	n/a	1	n/a	n/a	n/a	n/a	n/a	n/a	n/a	n/a
1868.444	1	80	n/a	n/a	1	n/a	n/a	n/a	n/a	n/a	n/a	n/a	n/a
1868.6474	1	31	n/a	n/a	1	n/a	n/a	n/a	n/a	n/a	n/a	n/a	n/a
1870.6638	1	40	n/a	n/a	1	n/a	n/a	n/a	n/a	n/a	n/a	n/a	n/a
1872.6804	1	10	1915.3	1915.3	1	0	1	0	0.7	0.27712	0.7	0.64662	20
1874.6136	1	20	n/a	n/a	1	n/a	n/a	n/a	n/a	n/a	n/a	n/a	n/a
1875.7136	1	80	n/a	n/a	1	n/a	n/a	n/a	n/a	n/a	n/a	n/a	n/a
1875.8136	1	80	n/a	n/a	1	n/a	n/a	n/a	n/a	n/a	n/a	n/a	n/a
1876.0302	1	31	n/a	n/a	1	n/a	n/a	n/a	n/a	n/a	n/a	n/a	n/a
1878.0468	1	40	n/a	n/a	1	n/a	n/a	n/a	n/a	n/a	n/a	n/a	n/a
1888.0794	1	10	1251.9	1251.9	1	0	1	0	0	0	0.5	0.5	21
1889.346	1	20	n/a	n/a	1	n/a	n/a	n/a	n/a	n/a	n/a	n/a	n/a
1890.909	1	80	n/a	n/a	1	n/a	n/a	n/a	n/a	n/a	n/a	n/a	n/a
1891.009	1	80	n/a	n/a	1	n/a	n/a	n/a	n/a	n/a	n/a	n/a	n/a
1891.2126	1	30	n/a	n/a	1	n/a	n/a	n/a	n/a	n/a	n/a	n/a	n/a
1893.2292	1	10	790.1	790.1	1	0	1	0	0	0	0.9	0.9	22
1894.0292	1	20	n/a	n/a	1	n/a	n/a	n/a	n/a	n/a	n/a	n/a	n/a
1895.7212	1	80	n/a	n/a	1	n/a	n/a	n/a	n/a	n/a	n/a	n/a	n/a
1895.8212	1	80	n/a	n/a	1	n/a	n/a	n/a	n/a	n/a	n/a	n/a	n/a
1896.029	1	31	n/a	n/a	1	n/a	n/a	n/a	n/a	n/a	n/a	n/a	n/a
1898.0456	1	10	661.5	661.5	1	0	1	0	0	0	0.9	0.9	23
1898.7122	1	20	n/a	n/a	1	n/a	n/a	n/a	n/a	n/a	n/a	n/a	n/a
1900.4312	1	80	n/a	n/a	1	n/a	n/a	n/a	n/a	n/a	n/a	n/a	n/a
1900.5312	1	80	n/a	n/a	1	n/a	n/a	n/a	n/a	n/a	n/a	n/a	n/a
1900.7454	1	31	n/a	n/a	1	n/a	n/a	n/a	n/a	n/a	n/a	n/a	n/a
1902.762	1	10	1097.1	1097.1	1	0	1	0	0	0	0.8	0.8	24
1903.8618	1	20	n/a	n/a	1	n/a	n/a	n/a	n/a	n/a	n/a	n/a	n/a
1905.0188	1	80	n/a	n/a	1	n/a	n/a	n/a	n/a	n/a	n/a	n/a	n/a
1905.1188	1	80	n/a	n/a	1	n/a	n/a	n/a	n/a	n/a	n/a	n/a	n/a
1905.3284	1	31	n/a	n/a	1	n/a	n/a	n/a	n/a	n/a	n/a	n/a	n/a
1907.345	1	10	1809.8	1809.8	1	0	1	0	0	0	0.5	0.5	25
1909.1616	1	20	n/a	n/a	1	n/a	n/a	n/a	n/a	n/a	n/a	n/a	n/a
1910.3076	1	80	n/a	n/a	1	n/a	n/a	n/a	n/a	n/a	n/a	n/a	n/a
1910.4076	1	80	n/a	n/a	1	n/a	n/a	n/a	n/a	n/a	n/a	n/a	n/a
1910.6114	1	31	n/a	n/a	1	n/a	n/a	n/a	n/a	n/a	n/a	n/a	n/a
1912.628	1	10	1294.7	1294.7	1	0	1	0	0	0	0.6	0.6	26
1913.928	1	20	n/a	n/a	1	n/a	n/a	n/a	n/a	n/a	n/a	n/a	n/a
1915.296	1	80	n/a	n/a	1	n/a	n/a	n/a	n/a	n/a	n/a	n/a	n/a
1915.396	1	80	n/a	n/a	1	n/a	n/a	n/a	n/a	n/a	n/a	n/a	n/a
1915.6112	1	30	n/a	n/a	1	n/a	n/a	n/a	n/a	n/a	n/a	n/a	n/a
1917.6278	1	10	614.9	614.9	1	0	1	0	0	0	0.6	0.6	27
1918.261	1	20	n/a	n/a	1	n/a	n/a	n/a	n/a	n/a	n/a	n/a	n/a
1919.884	1	80	n/a	n/a	1	n/a	n/a	n/a	n/a	n/a	n/a	n/a	n/a
1919.984	1	80	n/a	n/a	1	n/a	n/a	n/a	n/a	n/a	n/a	n/a	n/a
1920.1942	1	31	n/a	n/a	1	n/a	n/a	n/a	n/a	n/a	n/a	n/a	n/a
1922.2108	1	10	751.8	751.8	1	0	1	0	0	0	0.1	0.1	28
1922.9774	1	20	n/a	n/a	1	n/a	n/a	n/a	n/a	n/a	n/a	n/a	n/a
1924.4314	1	80	n/a	n/a	1	n/a	n/a	n/a	n/a	n/a	n/a	n/a	n/a
1924.5314	1	80	n/a	n/a	1	n/a	n/a	n/a	n/a	n/a	n/a	n/a	n/a
1924.744	1	31	n/a	n/a	1	n/a	n/a	n/a	n/a	n/a	n/a	n/a	n/a
1926.7606	1	10	1321.9	1321.9	1	0	1	0	0	0	0.1	0.1	29
1928.0938	1	20	n/a	n/a	1	n/a	n/a	n/a	n/a	n/a	n/a	n/a	n/a
1929.8088	1	80	n/a	n/a	1	n/a	n/a	n/a	n/a	n/a	n/a	n/a	n/a
1929.9088	1	80	n/a	n/a	1	n/a	n/a	n/a	n/a	n/a	n/a	n/a	n/a
1930.1104	1	31	n/a	n/a	1	n/a	n/a	n/a	n/a	n/a	n/a	n/a	n/a
1932.1268	1	10	595.5	595.5	1	0	1	0	0	0	0.3	0.3	30
1932.7268	1	20	n/a	n/a	1	n/a	n/a	n/a	n/a	n/a	n/a	n/a	n/a
1934.5878	1	80	n/a	n/a	1	n/a	n/a	n/a	n/a	n/a	n/a	n/a	n/a
1934.6878	1	80	n/a	n/a	1	n/a	n/a	n/a	n/a	n/a	n/a	n/a	n/a
1934.8934	1	31	n/a	n/a	1	n/a	n/a	n/a	n/a	n/a	n/a	n/a	n/a
1944.9262	1	10	1075.9	1075.9	1	0	1	0	0.5	0.28521	0.6	0.48521	31
1946.0094	1	20	n/a	n/a	1	n/a	n/a	n/a	n/a	n/a	n/a	n/a	n/a
1947.5514	1	80	n/a	n/a	1	n/a	n/a	n/a	n/a	n/a	n/a	n/a	n/a
1947.6514	1	80	n/a	n/a	1	n/a	n/a	n/a	n/a	n/a	n/a	n/a	n/a
1947.8592	1	30	n/a	n/a	1	n/a	n/a	n/a	n/a	n/a	n/a	n/a	n/a
1949.8758	1	40	n/a	n/a	1	n/a	n/a	n/a	n/a	n/a	n/a	n/a	n/a
1951.8924	1	10	701.6	701.6	1	0	1	0	0.6	0.053981	0.9	0.83097	32
1952.609	1	20	n/a	n/a	1	n/a	n/a	n/a	n/a	n/a	n/a	n/a	n/a
1954.389	1	80	n/a	n/a	1	n/a	n/a	n/a	n/a	n/a	n/a	n/a	n/a
1954.489	1	80	n/a	n/a	1	n/a	n/a	n/a	n/a	n/a	n/a	n/a	n/a
1954.6922	1	31	n/a	n/a	1	n/a	n/a	n/a	n/a	n/a	n/a	n/a	n/a
1956.7088	1	40	n/a	n/a	1	n/a	n/a	n/a	n/a	n/a	n/a	n/a	n/a
1958.7252	1	10	1100.5	1100.5	1	0	1	0	0.5	0.84452	0.1	0.044518	33
1959.8418	1	20	n/a	n/a	1	n/a	n/a	n/a	n/a	n/a	n/a	n/a	n/a
1960.899	1	80	n/a	n/a	1	n/a	n/a	n/a	n/a	n/a	n/a	n/a	n/a
1960.999	1	80	n/a	n/a	1	n/a	n/a	n/a	n/a	n/a	n/a	n/a	n/a
1961.2084	1	30	n/a	n/a	1	n/a	n/a	n/a	n/a	n/a	n/a	n/a	n/a
1963.225	1	40	n/a	n/a	1	n/a	n/a	n/a	n/a	n/a	n/a	n/a	n/a
1965.2416	1	10	2376	2376	1	0	1	0	0.7	0.77157	0.8	0.95833	34
1967.6248	1	20	n/a	n/a	1	n/a	n/a	n/a	n/a	n/a	n/a	n/a	n/a
1969.5598	1	80	n/a	n/a	1	n/a	n/a	n/a	n/a	n/a	n/a	n/a	n/a
1969.6598	1	80	n/a	n/a	1	n/a	n/a	n/a	n/a	n/a	n/a	n/a	n/a
1969.8746	1	31	n/a	n/a	1	n/a	n/a	n/a	n/a	n/a	n/a	n/a	n/a
1971.8912	1	40	n/a	n/a	1	n/a	n/a	n/a	n/a	n/a	n/a	n/a	n/a
1973.9078	1	10	717.7	717.7	1	0	1	0	0.4	0.33405	0.3	0.056035	35
1974.641	1	20	n/a	n/a	1	n/a	n/a	n/a	n/a	n/a	n/a	n/a	n/a
1976.429	1	80	n/a	n/a	1	n/a	n/a	n/a	n/a	n/a	n/a	n/a	n/a
1976.529	1	80	n/a	n/a	1	n/a	n/a	n/a	n/a	n/a	n/a	n/a	n/a
1976.7408	1	31	n/a	n/a	1	n/a	n/a	n/a	n/a	n/a	n/a	n/a	n/a
1978.7574	1	40	n/a	n/a	1	n/a	n/a	n/a	n/a	n/a	n/a	n/a	n/a
1980.774	1	10	1451.3	1451.3	1	0	1	0	0.7	0.1921	0.8	0.78157	36
1982.2406	1	20	n/a	n/a	1	n/a	n/a	n/a	n/a	n/a	n/a	n/a	n/a
1984.0346	1	80	n/a	n/a	1	n/a	n/a	n/a	n/a	n/a	n/a	n/a	n/a
1984.1346	1	80	n/a	n/a	1	n/a	n/a	n/a	n/a	n/a	n/a	n/a	n/a
1984.3404	1	30	n/a	n/a	1	n/a	n/a	n/a	n/a	n/a	n/a	n/a	n/a
1986.357	1	40	n/a	n/a	1	n/a	n/a	n/a	n/a	n/a	n/a	n/a	n/a
1988.3736	1	10	1803.5	1803.5	1	0	1	0	0.4	0.36716	0.7	0.74477	37
1990.19	1	20	n/a	n/a	1	n/a	n/a	n/a	n/a	n/a	n/a	n/a	n/a
1991.846	1	80	n/a	n/a	1	n/a	n/a	n/a	n/a	n/a	n/a	n/a	n/a
1991.946	1	80	n/a	n/a	1	n/a	n/a	n/a	n/a	n/a	n/a	n/a	n/a
1992.1566	1	31	n/a	n/a	1	n/a	n/a	n/a	n/a	n/a	n/a	n/a	n/a
1994.1732	1	40	n/a	n/a	1	n/a	n/a	n/a	n/a	n/a	n/a	n/a	n/a
1996.1898	1	10	915.1	915.1	1	0	1	0	0.4	0.90099	0.1	0.10066	38
1997.123	1	20	n/a	n/a	1	n/a	n/a	n/a	n/a	n/a	n/a	n/a	n/a
1998.383	1	80	n/a	n/a	1	n/a	n/a	n/a	n/a	n/a	n/a	n/a	n/a
1998.483	1	80	n/a	n/a	1	n/a	n/a	n/a	n/a	n/a	n/a	n/a	n/a
1998.6896	1	31	n/a	n/a	1	n/a	n/a	n/a	n/a	n/a	n/a	n/a	n/a
2000.7062	1	40	n/a	n/a	1	n/a	n/a	n/a	n/a	n/a	n/a	n/a	n/a
2002.7226	1	10	846.1	846.1	1	0	1	0	0.7	0.32242	0.1	0.041667	39
2003.5726	1	20	n/a	n/a	1	n/a	n/a	n/a	n/a	n/a	n/a	n/a	n/a
2005.5536	1	80	n/a	n/a	1	n/a	n/a	n/a	n/a	n/a	n/a	n/a	n/a
2005.6536	1	80	n/a	n/a	1	n/a	n/a	n/a	n/a	n/a	n/a	n/a	n/a
2005.8558	1	31	n/a	n/a	1	n/a	n/a	n/a	n/a	n/a	n/a	n/a	n/a
2007.8724	1	40	n/a	n/a	1	n/a	n/a	n/a	n/a	n/a	n/a	n/a	n/a
2009.889	1	10	927.7	927.7	1	0	1	0	0.5	0.87505	0.1	0.075052	40
2010.8222	1	20	n/a	n/a	1	n/a	n/a	n/a	n/a	n/a	n/a	n/a	n/a
2012.0502	1	80	n/a	n/a	1	n/a	n/a	n/a	n/a	n/a	n/a	n/a	n/a
2012.1502	1	80	n/a	n/a	1	n/a	n/a	n/a	n/a	n/a	n/a	n/a	n/a
2012.3554	1	31	n/a	n/a	1	n/a	n/a	n/a	n/a	n/a	n/a	n/a	n/a
2014.372	1	40	n/a	n/a	1	n/a	n/a	n/a	n/a	n/a	n/a	n/a	n/a
2169.4628	1	10	1494.1	1494.1	1	1	0	0	0	0	0.5	0.5	1
2170.9626	1	20	n/a	n/a	1	n/a	n/a	n/a	n/a	n/a	n/a	n/a	n/a
2172.7438	1	80	n/a	n/a	1	n/a	n/a	n/a	n/a	n/a	n/a	n/a	n/a
2172.8436	1	80	n/a	n/a	1	n/a	n/a	n/a	n/a	n/a	n/a	n/a	n/a
2173.0458	1	31	n/a	n/a	1	n/a	n/a	n/a	n/a	n/a	n/a	n/a	n/a
2175.0624	1	10	566.4	566.4	1	1	0	0	0	0	0.2	0.2	2
2175.6458	1	20	n/a	n/a	1	n/a	n/a	n/a	n/a	n/a	n/a	n/a	n/a
2176.6768	1	80	n/a	n/a	1	n/a	n/a	n/a	n/a	n/a	n/a	n/a	n/a
2176.7768	1	80	n/a	n/a	1	n/a	n/a	n/a	n/a	n/a	n/a	n/a	n/a
2176.979	1	31	n/a	n/a	1	n/a	n/a	n/a	n/a	n/a	n/a	n/a	n/a
2178.9956	1	10	521.2	521.2	1	1	0	0	0	0	0.7	0.7	3
2179.5288	1	20	n/a	n/a	1	n/a	n/a	n/a	n/a	n/a	n/a	n/a	n/a
2181.3108	1	80	n/a	n/a	1	n/a	n/a	n/a	n/a	n/a	n/a	n/a	n/a
2181.4108	1	80	n/a	n/a	1	n/a	n/a	n/a	n/a	n/a	n/a	n/a	n/a
2181.6288	1	31	n/a	n/a	1	n/a	n/a	n/a	n/a	n/a	n/a	n/a	n/a
2183.6452	1	10	1791.3	1791.3	1	1	0	0	0	0	0.5	0.5	4
2185.4452	1	20	n/a	n/a	1	n/a	n/a	n/a	n/a	n/a	n/a	n/a	n/a
2186.8582	1	80	n/a	n/a	1	n/a	n/a	n/a	n/a	n/a	n/a	n/a	n/a
2186.9582	1	80	n/a	n/a	1	n/a	n/a	n/a	n/a	n/a	n/a	n/a	n/a
2187.1618	1	30	n/a	n/a	1	n/a	n/a	n/a	n/a	n/a	n/a	n/a	n/a
2189.1782	1	10	642.2	642.2	1	1	0	0	0	0	0.8	0.8	5
2189.8282	1	20	n/a	n/a	1	n/a	n/a	n/a	n/a	n/a	n/a	n/a	n/a
2190.9522	1	80	n/a	n/a	1	n/a	n/a	n/a	n/a	n/a	n/a	n/a	n/a
2191.0522	1	80	n/a	n/a	1	n/a	n/a	n/a	n/a	n/a	n/a	n/a	n/a
2191.2614	1	31	n/a	n/a	1	n/a	n/a	n/a	n/a	n/a	n/a	n/a	n/a
2193.278	1	10	558.4	558.4	1	1	0	0	0	0	0.3	0.3	6
2193.8446	1	20	n/a	n/a	1	n/a	n/a	n/a	n/a	n/a	n/a	n/a	n/a
2195.1466	1	80	n/a	n/a	1	n/a	n/a	n/a	n/a	n/a	n/a	n/a	n/a
2195.2466	1	80	n/a	n/a	1	n/a	n/a	n/a	n/a	n/a	n/a	n/a	n/a
2195.4612	1	30	n/a	n/a	1	n/a	n/a	n/a	n/a	n/a	n/a	n/a	n/a
2197.4778	1	10	582.5	582.5	1	1	0	0	0	0	0.8	0.8	7
2198.0778	1	20	n/a	n/a	1	n/a	n/a	n/a	n/a	n/a	n/a	n/a	n/a
2199.6598	1	80	n/a	n/a	1	n/a	n/a	n/a	n/a	n/a	n/a	n/a	n/a
2199.7598	1	80	n/a	n/a	1	n/a	n/a	n/a	n/a	n/a	n/a	n/a	n/a
2199.9776	1	31	n/a	n/a	1	n/a	n/a	n/a	n/a	n/a	n/a	n/a	n/a
2201.9942	1	10	418	418	1	1	0	0	0	0	0.4	0.4	8
2202.4274	1	20	n/a	n/a	1	n/a	n/a	n/a	n/a	n/a	n/a	n/a	n/a
2203.7254	1	80	n/a	n/a	1	n/a	n/a	n/a	n/a	n/a	n/a	n/a	n/a
2203.8254	1	80	n/a	n/a	1	n/a	n/a	n/a	n/a	n/a	n/a	n/a	n/a
2204.0274	1	31	n/a	n/a	1	n/a	n/a	n/a	n/a	n/a	n/a	n/a	n/a
2206.044	1	10	480.2	480.2	1	1	0	0	0	0	0.7	0.7	9
2206.5272	1	20	n/a	n/a	1	n/a	n/a	n/a	n/a	n/a	n/a	n/a	n/a
2208.3632	1	80	n/a	n/a	1	n/a	n/a	n/a	n/a	n/a	n/a	n/a	n/a
2208.4632	1	80	n/a	n/a	1	n/a	n/a	n/a	n/a	n/a	n/a	n/a	n/a
2208.6772	1	31	n/a	n/a	1	n/a	n/a	n/a	n/a	n/a	n/a	n/a	n/a
2210.6936	1	10	1926.3	1926.3	1	1	0	0	0	0	0.5	0.5	10
2212.6268	1	20	n/a	n/a	1	n/a	n/a	n/a	n/a	n/a	n/a	n/a	n/a
2214.4658	1	80	n/a	n/a	1	n/a	n/a	n/a	n/a	n/a	n/a	n/a	n/a
2214.5658	1	80	n/a	n/a	1	n/a	n/a	n/a	n/a	n/a	n/a	n/a	n/a
2214.7768	1	30	n/a	n/a	1	n/a	n/a	n/a	n/a	n/a	n/a	n/a	n/a
2224.8094	1	10	1282.1	1282.1	1	1	0	0	0.6	0.32855	0.7	0.74283	11
2226.1094	1	20	n/a	n/a	1	n/a	n/a	n/a	n/a	n/a	n/a	n/a	n/a
2227.6574	1	80	n/a	n/a	1	n/a	n/a	n/a	n/a	n/a	n/a	n/a	n/a
2227.7574	1	80	n/a	n/a	1	n/a	n/a	n/a	n/a	n/a	n/a	n/a	n/a
2227.9592	1	30	n/a	n/a	1	n/a	n/a	n/a	n/a	n/a	n/a	n/a	n/a
2229.9758	1	40	n/a	n/a	1	n/a	n/a	n/a	n/a	n/a	n/a	n/a	n/a
2231.9924	1	10	1315.1	1315.1	1	1	0	0	0.5	0.57584	0.3	0.17584	12
2233.3256	1	20	n/a	n/a	1	n/a	n/a	n/a	n/a	n/a	n/a	n/a	n/a
2235.1356	1	80	n/a	n/a	1	n/a	n/a	n/a	n/a	n/a	n/a	n/a	n/a
2235.2356	1	80	n/a	n/a	1	n/a	n/a	n/a	n/a	n/a	n/a	n/a	n/a
2235.4422	1	30	n/a	n/a	1	n/a	n/a	n/a	n/a	n/a	n/a	n/a	n/a
2237.4588	1	40	n/a	n/a	1	n/a	n/a	n/a	n/a	n/a	n/a	n/a	n/a
2239.4752	1	10	824	824	1	1	0	0	0.5	0.87532	0.1	0.075321	13
2240.3086	1	20	n/a	n/a	1	n/a	n/a	n/a	n/a	n/a	n/a	n/a	n/a
2241.6406	1	80	n/a	n/a	1	n/a	n/a	n/a	n/a	n/a	n/a	n/a	n/a
2241.7406	1	80	n/a	n/a	1	n/a	n/a	n/a	n/a	n/a	n/a	n/a	n/a
2241.9584	1	31	n/a	n/a	1	n/a	n/a	n/a	n/a	n/a	n/a	n/a	n/a
2243.975	1	40	n/a	n/a	1	n/a	n/a	n/a	n/a	n/a	n/a	n/a	n/a
2245.9916	1	10	515.5	515.5	1	1	0	0	0.4	0.73356	0.2	0.15571	14
2246.5248	1	20	n/a	n/a	1	n/a	n/a	n/a	n/a	n/a	n/a	n/a	n/a
2248.4898	1	80	n/a	n/a	1	n/a	n/a	n/a	n/a	n/a	n/a	n/a	n/a
2248.5898	1	80	n/a	n/a	1	n/a	n/a	n/a	n/a	n/a	n/a	n/a	n/a
2248.808	1	31	n/a	n/a	1	n/a	n/a	n/a	n/a	n/a	n/a	n/a	n/a
2250.808	1	40	n/a	n/a	1	n/a	n/a	n/a	n/a	n/a	n/a	n/a	n/a
2252.8244	1	10	642.6	642.6	1	1	0	0	0.5	0.083653	0.8	0.68365	15
2253.4744	1	20	n/a	n/a	1	n/a	n/a	n/a	n/a	n/a	n/a	n/a	n/a
2254.9594	1	80	n/a	n/a	1	n/a	n/a	n/a	n/a	n/a	n/a	n/a	n/a
2255.0594	1	80	n/a	n/a	1	n/a	n/a	n/a	n/a	n/a	n/a	n/a	n/a
2255.2744	1	31	n/a	n/a	1	n/a	n/a	n/a	n/a	n/a	n/a	n/a	n/a
2257.2908	1	40	n/a	n/a	1	n/a	n/a	n/a	n/a	n/a	n/a	n/a	n/a
2259.3074	1	10	1455.4	1455.4	1	1	0	0	0.8	0.82994	0.7	0.9375	16
2260.774	1	20	n/a	n/a	1	n/a	n/a	n/a	n/a	n/a	n/a	n/a	n/a
2262.053	1	80	n/a	n/a	1	n/a	n/a	n/a	n/a	n/a	n/a	n/a	n/a
2262.153	1	80	n/a	n/a	1	n/a	n/a	n/a	n/a	n/a	n/a	n/a	n/a
2262.3572	1	30	n/a	n/a	1	n/a	n/a	n/a	n/a	n/a	n/a	n/a	n/a
2264.3738	1	40	n/a	n/a	1	n/a	n/a	n/a	n/a	n/a	n/a	n/a	n/a
2266.3904	1	10	500.3	500.3	1	1	0	0	0.5	0.89145	0.1	0.091451	17
2266.907	1	20	n/a	n/a	1	n/a	n/a	n/a	n/a	n/a	n/a	n/a	n/a
2268.509	1	80	n/a	n/a	1	n/a	n/a	n/a	n/a	n/a	n/a	n/a	n/a
2268.609	1	80	n/a	n/a	1	n/a	n/a	n/a	n/a	n/a	n/a	n/a	n/a
2268.8236	1	31	n/a	n/a	1	n/a	n/a	n/a	n/a	n/a	n/a	n/a	n/a
2270.84	1	40	n/a	n/a	1	n/a	n/a	n/a	n/a	n/a	n/a	n/a	n/a
2272.8566	1	10	561.9	561.9	1	1	0	0	0.8	0.9578	0.1	0.33121	18
2273.4232	1	20	n/a	n/a	1	n/a	n/a	n/a	n/a	n/a	n/a	n/a	n/a
2274.4542	1	80	n/a	n/a	1	n/a	n/a	n/a	n/a	n/a	n/a	n/a	n/a
2274.5542	1	80	n/a	n/a	1	n/a	n/a	n/a	n/a	n/a	n/a	n/a	n/a
2274.7566	1	31	n/a	n/a	1	n/a	n/a	n/a	n/a	n/a	n/a	n/a	n/a
2276.773	1	40	n/a	n/a	1	n/a	n/a	n/a	n/a	n/a	n/a	n/a	n/a
2278.7896	1	10	820.8	820.8	1	1	0	0	0.5	0.89275	0.9	0.975	19
2279.6228	1	20	n/a	n/a	1	n/a	n/a	n/a	n/a	n/a	n/a	n/a	n/a
2281.208	1	80	n/a	n/a	1	n/a	n/a	n/a	n/a	n/a	n/a	n/a	n/a
2281.308	1	80	n/a	n/a	1	n/a	n/a	n/a	n/a	n/a	n/a	n/a	n/a
2281.5228	1	31	n/a	n/a	1	n/a	n/a	n/a	n/a	n/a	n/a	n/a	n/a
2283.5394	1	40	n/a	n/a	1	n/a	n/a	n/a	n/a	n/a	n/a	n/a	n/a
2285.5558	1	10	614.4	614.4	1	1	0	0	0.5	0.69797	0.1	0.025	20
2286.1726	1	20	n/a	n/a	1	n/a	n/a	n/a	n/a	n/a	n/a	n/a	n/a
2287.5976	1	80	n/a	n/a	1	n/a	n/a	n/a	n/a	n/a	n/a	n/a	n/a
2287.6976	1	80	n/a	n/a	1	n/a	n/a	n/a	n/a	n/a	n/a	n/a	n/a
2287.9058	1	31	n/a	n/a	1	n/a	n/a	n/a	n/a	n/a	n/a	n/a	n/a
2289.9222	1	40	n/a	n/a	1	n/a	n/a	n/a	n/a	n/a	n/a	n/a	n/a
2299.955	1	10	694.9	694.9	1	1	0	0	0	0	0.2	0.2	21
2300.655	1	20	n/a	n/a	1	n/a	n/a	n/a	n/a	n/a	n/a	n/a	n/a
2301.794	1	80	n/a	n/a	1	n/a	n/a	n/a	n/a	n/a	n/a	n/a	n/a
2301.894	1	80	n/a	n/a	1	n/a	n/a	n/a	n/a	n/a	n/a	n/a	n/a
2302.1048	1	31	n/a	n/a	1	n/a	n/a	n/a	n/a	n/a	n/a	n/a	n/a
2304.1214	1	10	1056.4	1056.4	1	1	0	0	0	0	0.1	0.1	22
2305.188	1	20	n/a	n/a	1	n/a	n/a	n/a	n/a	n/a	n/a	n/a	n/a
2307.003	1	80	n/a	n/a	1	n/a	n/a	n/a	n/a	n/a	n/a	n/a	n/a
2307.103	1	80	n/a	n/a	1	n/a	n/a	n/a	n/a	n/a	n/a	n/a	n/a
2307.3046	1	31	n/a	n/a	1	n/a	n/a	n/a	n/a	n/a	n/a	n/a	n/a
2309.3212	1	10	720.6	720.6	1	1	0	0	0	0	0.1	0.1	23
2310.0544	1	20	n/a	n/a	1	n/a	n/a	n/a	n/a	n/a	n/a	n/a	n/a
2311.5464	1	80	n/a	n/a	1	n/a	n/a	n/a	n/a	n/a	n/a	n/a	n/a
2311.6464	1	80	n/a	n/a	1	n/a	n/a	n/a	n/a	n/a	n/a	n/a	n/a
2311.8544	1	31	n/a	n/a	1	n/a	n/a	n/a	n/a	n/a	n/a	n/a	n/a
2313.8708	1	10	426.7	426.7	1	1	0	0	0	0	0.1	0.1	24
2314.3042	1	20	n/a	n/a	1	n/a	n/a	n/a	n/a	n/a	n/a	n/a	n/a
2315.9872	1	80	n/a	n/a	1	n/a	n/a	n/a	n/a	n/a	n/a	n/a	n/a
2316.0872	1	80	n/a	n/a	1	n/a	n/a	n/a	n/a	n/a	n/a	n/a	n/a
2316.304	1	31	n/a	n/a	1	n/a	n/a	n/a	n/a	n/a	n/a	n/a	n/a
2318.3206	1	10	568.9	568.9	1	1	0	0	0	0	0.1	0.1	25
2318.9038	1	20	n/a	n/a	1	n/a	n/a	n/a	n/a	n/a	n/a	n/a	n/a
2320.779	1	80	n/a	n/a	1	n/a	n/a	n/a	n/a	n/a	n/a	n/a	n/a
2320.879	1	80	n/a	n/a	1	n/a	n/a	n/a	n/a	n/a	n/a	n/a	n/a
2321.087	1	31	n/a	n/a	1	n/a	n/a	n/a	n/a	n/a	n/a	n/a	n/a
2323.1036	1	10	505.8	505.8	1	1	0	0	0	0	0.3	0.3	26
2323.6202	1	20	n/a	n/a	1	n/a	n/a	n/a	n/a	n/a	n/a	n/a	n/a
2324.8214	1	80	n/a	n/a	1	n/a	n/a	n/a	n/a	n/a	n/a	n/a	n/a
2324.9214	1	80	n/a	n/a	1	n/a	n/a	n/a	n/a	n/a	n/a	n/a	n/a
2325.1368	1	30	n/a	n/a	1	n/a	n/a	n/a	n/a	n/a	n/a	n/a	n/a
2327.1534	1	10	520	520	1	1	0	0	0	0	0.1	0.1	27
2327.6868	1	20	n/a	n/a	1	n/a	n/a	n/a	n/a	n/a	n/a	n/a	n/a
2328.9128	1	80	n/a	n/a	1	n/a	n/a	n/a	n/a	n/a	n/a	n/a	n/a
2329.0128	1	80	n/a	n/a	1	n/a	n/a	n/a	n/a	n/a	n/a	n/a	n/a
2329.22	1	31	n/a	n/a	1	n/a	n/a	n/a	n/a	n/a	n/a	n/a	n/a
2331.2364	1	10	500.8	500.8	1	1	0	0	0	0	0.4	0.4	28
2331.7532	1	20	n/a	n/a	1	n/a	n/a	n/a	n/a	n/a	n/a	n/a	n/a
2333.4482	1	80	n/a	n/a	1	n/a	n/a	n/a	n/a	n/a	n/a	n/a	n/a
2333.5482	1	80	n/a	n/a	1	n/a	n/a	n/a	n/a	n/a	n/a	n/a	n/a
2333.753	1	31	n/a	n/a	1	n/a	n/a	n/a	n/a	n/a	n/a	n/a	n/a
2335.7696	1	10	575.5	575.5	1	1	0	0	0	0	0.9	0.9	29
2336.3528	1	20	n/a	n/a	1	n/a	n/a	n/a	n/a	n/a	n/a	n/a	n/a
2337.4946	1	80	n/a	n/a	1	n/a	n/a	n/a	n/a	n/a	n/a	n/a	n/a
2337.5946	1	80	n/a	n/a	1	n/a	n/a	n/a	n/a	n/a	n/a	n/a	n/a
2337.8028	1	31	n/a	n/a	1	n/a	n/a	n/a	n/a	n/a	n/a	n/a	n/a
2339.8194	1	10	605.7	605.7	1	1	0	0	0	0	0.8	0.8	30
2340.436	1	20	n/a	n/a	1	n/a	n/a	n/a	n/a	n/a	n/a	n/a	n/a
2341.449	1	80	n/a	n/a	1	n/a	n/a	n/a	n/a	n/a	n/a	n/a	n/a
2341.549	1	80	n/a	n/a	1	n/a	n/a	n/a	n/a	n/a	n/a	n/a	n/a
2341.7526	1	31	n/a	n/a	1	n/a	n/a	n/a	n/a	n/a	n/a	n/a	n/a
2351.7852	1	10	1007.5	1007.5	1	1	0	0	0.4	0.27409	0.5	0.34939	31
2352.8018	1	20	n/a	n/a	1	n/a	n/a	n/a	n/a	n/a	n/a	n/a	n/a
2354.085	1	80	n/a	n/a	1	n/a	n/a	n/a	n/a	n/a	n/a	n/a	n/a
2354.185	1	80	n/a	n/a	1	n/a	n/a	n/a	n/a	n/a	n/a	n/a	n/a
2354.4018	1	31	n/a	n/a	1	n/a	n/a	n/a	n/a	n/a	n/a	n/a	n/a
2356.4184	1	40	n/a	n/a	1	n/a	n/a	n/a	n/a	n/a	n/a	n/a	n/a
2358.4348	1	10	613.7	613.7	1	1	0	0	0.4	0.14078	0.4	0.093856	32
2359.0516	1	20	n/a	n/a	1	n/a	n/a	n/a	n/a	n/a	n/a	n/a	n/a
2360.1506	1	80	n/a	n/a	1	n/a	n/a	n/a	n/a	n/a	n/a	n/a	n/a
2360.2506	1	80	n/a	n/a	1	n/a	n/a	n/a	n/a	n/a	n/a	n/a	n/a
2360.468	1	31	n/a	n/a	1	n/a	n/a	n/a	n/a	n/a	n/a	n/a	n/a
2362.4846	1	40	n/a	n/a	1	n/a	n/a	n/a	n/a	n/a	n/a	n/a	n/a
2364.5012	1	10	547.2	547.2	1	1	0	0	0.6	0.9154	0.1	0.1231	33
2365.0512	1	20	n/a	n/a	1	n/a	n/a	n/a	n/a	n/a	n/a	n/a	n/a
2367.0312	1	80	n/a	n/a	1	n/a	n/a	n/a	n/a	n/a	n/a	n/a	n/a
2367.1312	1	80	n/a	n/a	1	n/a	n/a	n/a	n/a	n/a	n/a	n/a	n/a
2367.3344	1	31	n/a	n/a	1	n/a	n/a	n/a	n/a	n/a	n/a	n/a	n/a
2369.351	1	40	n/a	n/a	1	n/a	n/a	n/a	n/a	n/a	n/a	n/a	n/a
2371.3674	1	10	880.9	880.9	1	1	0	0	0.7	0.030527	0.7	0.071231	34
2372.2508	1	20	n/a	n/a	1	n/a	n/a	n/a	n/a	n/a	n/a	n/a	n/a
2374.0308	1	80	n/a	n/a	1	n/a	n/a	n/a	n/a	n/a	n/a	n/a	n/a
2374.1308	1	80	n/a	n/a	1	n/a	n/a	n/a	n/a	n/a	n/a	n/a	n/a
2374.334	1	31	n/a	n/a	1	n/a	n/a	n/a	n/a	n/a	n/a	n/a	n/a
2376.3504	1	40	n/a	n/a	1	n/a	n/a	n/a	n/a	n/a	n/a	n/a	n/a
2378.367	1	10	937.2	937.2	1	1	0	0	0.6	0.23176	0.1	0.03125	35
2379.317	1	20	n/a	n/a	1	n/a	n/a	n/a	n/a	n/a	n/a	n/a	n/a
2381.182	1	80	n/a	n/a	1	n/a	n/a	n/a	n/a	n/a	n/a	n/a	n/a
2381.282	1	80	n/a	n/a	1	n/a	n/a	n/a	n/a	n/a	n/a	n/a	n/a
2381.4836	1	31	n/a	n/a	1	n/a	n/a	n/a	n/a	n/a	n/a	n/a	n/a
2383.5	1	40	n/a	n/a	1	n/a	n/a	n/a	n/a	n/a	n/a	n/a	n/a
2385.5166	1	10	795.4	795.4	1	1	0	0	0.5	0.05693	0.8	0.65693	36
2386.3166	1	20	n/a	n/a	1	n/a	n/a	n/a	n/a	n/a	n/a	n/a	n/a
2387.3706	1	80	n/a	n/a	1	n/a	n/a	n/a	n/a	n/a	n/a	n/a	n/a
2387.4706	1	80	n/a	n/a	1	n/a	n/a	n/a	n/a	n/a	n/a	n/a	n/a
2387.6832	1	31	n/a	n/a	1	n/a	n/a	n/a	n/a	n/a	n/a	n/a	n/a
2389.6996	1	40	n/a	n/a	1	n/a	n/a	n/a	n/a	n/a	n/a	n/a	n/a
2391.7162	1	10	787.6	787.6	1	1	0	0	0.4	0.84092	0.9	0.97917	37
2392.5162	1	20	n/a	n/a	1	n/a	n/a	n/a	n/a	n/a	n/a	n/a	n/a
2394.0482	1	80	n/a	n/a	1	n/a	n/a	n/a	n/a	n/a	n/a	n/a	n/a
2394.1482	1	80	n/a	n/a	1	n/a	n/a	n/a	n/a	n/a	n/a	n/a	n/a
2394.366	1	30	n/a	n/a	1	n/a	n/a	n/a	n/a	n/a	n/a	n/a	n/a
2396.3826	1	40	n/a	n/a	1	n/a	n/a	n/a	n/a	n/a	n/a	n/a	n/a
2398.3992	1	10	632.5	632.5	1	1	0	0	0.5	0.89302	0.1	0.093018	38
2399.0492	1	20	n/a	n/a	1	n/a	n/a	n/a	n/a	n/a	n/a	n/a	n/a
2401.0352	1	80	n/a	n/a	1	n/a	n/a	n/a	n/a	n/a	n/a	n/a	n/a
2401.1352	1	80	n/a	n/a	1	n/a	n/a	n/a	n/a	n/a	n/a	n/a	n/a
2401.349	1	31	n/a	n/a	1	n/a	n/a	n/a	n/a	n/a	n/a	n/a	n/a
2403.3656	1	40	n/a	n/a	1	n/a	n/a	n/a	n/a	n/a	n/a	n/a	n/a
2405.3822	1	10	865.4	865.4	1	1	0	0	0.6	0.034865	0.9	0.8023	39
2406.2654	1	20	n/a	n/a	1	n/a	n/a	n/a	n/a	n/a	n/a	n/a	n/a
2407.9034	1	80	n/a	n/a	1	n/a	n/a	n/a	n/a	n/a	n/a	n/a	n/a
2408.0034	1	80	n/a	n/a	1	n/a	n/a	n/a	n/a	n/a	n/a	n/a	n/a
2408.2152	1	31	n/a	n/a	1	n/a	n/a	n/a	n/a	n/a	n/a	n/a	n/a
2410.2318	1	40	n/a	n/a	1	n/a	n/a	n/a	n/a	n/a	n/a	n/a	n/a
2412.2484	1	10	591.1	591.1	1	1	0	0	0.4	0.62357	0.1	0.020833	40
2412.8484	1	20	n/a	n/a	1	n/a	n/a	n/a	n/a	n/a	n/a	n/a	n/a
2414.6554	1	80	n/a	n/a	1	n/a	n/a	n/a	n/a	n/a	n/a	n/a	n/a
2414.7554	1	80	n/a	n/a	1	n/a	n/a	n/a	n/a	n/a	n/a	n/a	n/a
2414.9648	1	31	n/a	n/a	1	n/a	n/a	n/a	n/a	n/a	n/a	n/a	n/a
2416.9814	1	40	n/a	n/a	1	n/a	n/a	n/a	n/a	n/a	n/a	n/a	n/a
