onset	duration	value	response	rt	good	TMSips	TMSppc	TMSvertex	a	bias	delta	fixed	p	pv	ronda
94.0662	1	10	1959.1	1959.1	1	1	0	0	0	0	0	0	0.5	0.5	1
96.0328	1	20	n/a	n/a	1	n/a	n/a	n/a	n/a	n/a	0.1	0	n/a	n/a	n/a
97.6948	1	80	n/a	n/a	1	n/a	n/a	n/a	n/a	n/a	0	0	n/a	n/a	n/a
97.7948	1	80	n/a	n/a	1	n/a	n/a	n/a	n/a	n/a	0	0	n/a	n/a	n/a
97.9994	1	31	n/a	n/a	1	n/a	n/a	n/a	n/a	n/a	0.1	0	n/a	n/a	n/a
100.0158	1	10	1481.4	1481.4	1	1	0	0	0	0	-0.2	0	0.2	0.2	2
101.5158	1	20	n/a	n/a	1	n/a	n/a	n/a	n/a	n/a	0.1	0	n/a	n/a	n/a
103.4358	1	80	n/a	n/a	1	n/a	n/a	n/a	n/a	n/a	0	0	n/a	n/a	n/a
103.5358	1	80	n/a	n/a	1	n/a	n/a	n/a	n/a	n/a	0	0	n/a	n/a	n/a
103.749	1	30	n/a	n/a	1	n/a	n/a	n/a	n/a	n/a	0	0	n/a	n/a	n/a
105.7656	1	10	1507.6	1507.6	1	1	0	0	0	0	0.1	0	0.9	0.9	3
107.2822	1	20	n/a	n/a	1	n/a	n/a	n/a	n/a	n/a	-1.4552e-11	0	n/a	n/a	n/a
108.6152	1	80	n/a	n/a	1	n/a	n/a	n/a	n/a	n/a	0	0	n/a	n/a	n/a
108.7152	1	80	n/a	n/a	1	n/a	n/a	n/a	n/a	n/a	0	0	n/a	n/a	n/a
108.932	1	31	n/a	n/a	1	n/a	n/a	n/a	n/a	n/a	-0.1	0	n/a	n/a	n/a
110.9486	1	10	2436.4	2436.4	1	1	0	0	0	0	0	0	0.5	0.5	4
113.3984	1	20	n/a	n/a	1	n/a	n/a	n/a	n/a	n/a	-1.4552e-11	0	n/a	n/a	n/a
114.8634	1	80	n/a	n/a	1	n/a	n/a	n/a	n/a	n/a	0	0	n/a	n/a	n/a
114.9634	1	80	n/a	n/a	1	n/a	n/a	n/a	n/a	n/a	0	0	n/a	n/a	n/a
115.1816	1	31	n/a	n/a	1	n/a	n/a	n/a	n/a	n/a	17.7	0	n/a	n/a	n/a
117.1816	1	10	2491.3	2491.3	1	1	0	0	0	0	-17.6	0	0.1	0.1	5
119.6814	1	20	n/a	n/a	1	n/a	n/a	n/a	n/a	n/a	-0.1	0	n/a	n/a	n/a
120.7854	1	80	n/a	n/a	1	n/a	n/a	n/a	n/a	n/a	0	0	n/a	n/a	n/a
120.8854	1	80	n/a	n/a	1	n/a	n/a	n/a	n/a	n/a	0	0	n/a	n/a	n/a
121.098	1	31	n/a	n/a	1	n/a	n/a	n/a	n/a	n/a	0.1	0	n/a	n/a	n/a
123.1146	1	10	2158.2	2158.2	1	1	0	0	0	0	1.4552e-11	0	0.6	0.6	6
125.281	1	20	n/a	n/a	1	n/a	n/a	n/a	n/a	n/a	-0.1	0	n/a	n/a	n/a
126.737	1	80	n/a	n/a	1	n/a	n/a	n/a	n/a	n/a	0	0	n/a	n/a	n/a
126.837	1	80	n/a	n/a	1	n/a	n/a	n/a	n/a	n/a	0	0	n/a	n/a	n/a
127.0476	1	30	n/a	n/a	1	n/a	n/a	n/a	n/a	n/a	0	0	n/a	n/a	n/a
129.0642	1	10	2304.4	2304.4	1	1	0	0	0	0	0.1	0	0.3	0.3	7
131.3806	1	20	n/a	n/a	1	n/a	n/a	n/a	n/a	n/a	-0.1	0	n/a	n/a	n/a
132.7446	1	80	n/a	n/a	1	n/a	n/a	n/a	n/a	n/a	-0.1	0	n/a	n/a	n/a
132.8446	1	80	n/a	n/a	1	n/a	n/a	n/a	n/a	n/a	0	0	n/a	n/a	n/a
133.0472	1	31	n/a	n/a	1	n/a	n/a	n/a	n/a	n/a	0.1	0	n/a	n/a	n/a
135.0638	1	10	1568.6	1568.6	1	1	0	0	0	0	-2.9104e-11	0	0.3	0.3	8
136.647	1	20	n/a	n/a	1	n/a	n/a	n/a	n/a	n/a	2.9104e-11	0	n/a	n/a	n/a
138.046	1	80	n/a	n/a	1	n/a	n/a	n/a	n/a	n/a	0	0	n/a	n/a	n/a
138.146	1	80	n/a	n/a	1	n/a	n/a	n/a	n/a	n/a	0	0	n/a	n/a	n/a
138.3636	1	31	n/a	n/a	1	n/a	n/a	n/a	n/a	n/a	0	0	n/a	n/a	n/a
140.3802	1	10	1628.2	1628.2	1	1	0	0	0	0	0.1	0	0.6	0.6	9
142.0134	1	20	n/a	n/a	1	n/a	n/a	n/a	n/a	n/a	-2.9104e-11	0	n/a	n/a	n/a
143.7974	1	80	n/a	n/a	1	n/a	n/a	n/a	n/a	n/a	-0.1	0	n/a	n/a	n/a
143.8974	1	80	n/a	n/a	1	n/a	n/a	n/a	n/a	n/a	0	0	n/a	n/a	n/a
144.1132	1	31	n/a	n/a	1	n/a	n/a	n/a	n/a	n/a	0	0	n/a	n/a	n/a
146.1298	1	10	2262.4	2262.4	1	1	0	0	0	0	0.1	0	0.9	0.9	10
148.3964	1	20	n/a	n/a	1	n/a	n/a	n/a	n/a	n/a	0	0	n/a	n/a	n/a
149.6084	1	80	n/a	n/a	1	n/a	n/a	n/a	n/a	n/a	0	0	n/a	n/a	n/a
149.7084	1	80	n/a	n/a	1	n/a	n/a	n/a	n/a	n/a	0	0	n/a	n/a	n/a
149.9128	1	31	n/a	n/a	1	n/a	n/a	n/a	n/a	n/a	-0.2	0	n/a	n/a	n/a
160.9456	1	10	2246.3	2246.3	1	1	0	0	0.4	0.14208	0.2	0	0.9	0.92805	11
163.1954	1	20	n/a	n/a	1	n/a	n/a	n/a	n/a	n/a	-0.1	0	n/a	n/a	n/a
164.7654	1	80	n/a	n/a	1	n/a	n/a	n/a	n/a	n/a	0	0	n/a	n/a	n/a
164.8654	1	80	n/a	n/a	1	n/a	n/a	n/a	n/a	n/a	0	0	n/a	n/a	n/a
165.0786	1	31	n/a	n/a	1	n/a	n/a	n/a	n/a	n/a	0	0	n/a	n/a	n/a
167.0952	1	40	n/a	n/a	1	n/a	n/a	n/a	n/a	n/a	0.1	0	n/a	n/a	n/a
169.1118	1	10	3151.8	3151.8	1	1	0	0	0.8	0.17449	-2.9104e-11	0	0.8	0.69797	12
172.2782	1	20	n/a	n/a	1	n/a	n/a	n/a	n/a	n/a	-0.1	0	n/a	n/a	n/a
173.5632	1	80	n/a	n/a	1	n/a	n/a	n/a	n/a	n/a	0	0	n/a	n/a	n/a
173.6632	1	80	n/a	n/a	1	n/a	n/a	n/a	n/a	n/a	0	0	n/a	n/a	n/a
173.8782	1	31	n/a	n/a	1	n/a	n/a	n/a	n/a	n/a	0.1	0	n/a	n/a	n/a
175.8946	1	40	n/a	n/a	1	n/a	n/a	n/a	n/a	n/a	-0.1	0	n/a	n/a	n/a
177.9112	1	10	2976.2	2976.2	1	1	0	0	0.5	0.16668	0.1	0	0.9	0.96668	13
180.8944	1	20	n/a	n/a	1	n/a	n/a	n/a	n/a	n/a	-2.9104e-11	0	n/a	n/a	n/a
182.5384	1	80	n/a	n/a	1	n/a	n/a	n/a	n/a	n/a	0	0	n/a	n/a	n/a
182.6384	1	80	n/a	n/a	1	n/a	n/a	n/a	n/a	n/a	0	0	n/a	n/a	n/a
182.8442	1	30	n/a	n/a	1	n/a	n/a	n/a	n/a	n/a	-0.1	0	n/a	n/a	n/a
184.8608	1	40	n/a	n/a	1	n/a	n/a	n/a	n/a	n/a	0.1	0	n/a	n/a	n/a
186.8774	1	10	1465.8	1465.8	1	1	0	0	0.7	0.084054	0	0	0.8	0.52946	14
188.3606	1	20	n/a	n/a	1	n/a	n/a	n/a	n/a	n/a	0	0	n/a	n/a	n/a
189.9256	1	80	n/a	n/a	1	n/a	n/a	n/a	n/a	n/a	0	0	n/a	n/a	n/a
190.0256	1	80	n/a	n/a	1	n/a	n/a	n/a	n/a	n/a	0	0	n/a	n/a	n/a
190.2272	1	31	n/a	n/a	1	n/a	n/a	n/a	n/a	n/a	2.9104e-11	0	n/a	n/a	n/a
192.2438	1	40	n/a	n/a	1	n/a	n/a	n/a	n/a	n/a	0.1	0	n/a	n/a	n/a
194.2602	1	10	1106.9	1106.9	1	1	0	0	0.5	0.35573	-0.1	0	0.1	0.025	15
195.3768	1	20	n/a	n/a	1	n/a	n/a	n/a	n/a	n/a	-2.9104e-11	0	n/a	n/a	n/a
196.4228	1	80	n/a	n/a	1	n/a	n/a	n/a	n/a	n/a	-0.1	0	n/a	n/a	n/a
196.5228	1	80	n/a	n/a	1	n/a	n/a	n/a	n/a	n/a	0	0	n/a	n/a	n/a
196.7268	1	31	n/a	n/a	1	n/a	n/a	n/a	n/a	n/a	0.1	0	n/a	n/a	n/a
198.7434	1	40	n/a	n/a	1	n/a	n/a	n/a	n/a	n/a	0.1	0	n/a	n/a	n/a
200.7598	1	10	1151	1151	1	1	0	0	0.4	0.26771	-0.2	0	0.8	0.84514	16
201.9264	1	20	n/a	n/a	1	n/a	n/a	n/a	n/a	n/a	2.9104e-11	0	n/a	n/a	n/a
203.8404	1	80	n/a	n/a	1	n/a	n/a	n/a	n/a	n/a	0	0	n/a	n/a	n/a
203.9404	1	80	n/a	n/a	1	n/a	n/a	n/a	n/a	n/a	0	0	n/a	n/a	n/a
204.143	1	31	n/a	n/a	1	n/a	n/a	n/a	n/a	n/a	0.1	0	n/a	n/a	n/a
206.1596	1	40	n/a	n/a	1	n/a	n/a	n/a	n/a	n/a	0.1	0	n/a	n/a	n/a
208.176	1	10	3062.6	3062.6	1	1	0	0	0.7	0.96946	-0.2	0	0.1	0.26207	17
211.2426	1	20	n/a	n/a	1	n/a	n/a	n/a	n/a	n/a	0.1	0	n/a	n/a	n/a
212.7756	1	80	n/a	n/a	1	n/a	n/a	n/a	n/a	n/a	0	0	n/a	n/a	n/a
212.8756	1	80	n/a	n/a	1	n/a	n/a	n/a	n/a	n/a	0	0	n/a	n/a	n/a
213.0924	1	30	n/a	n/a	1	n/a	n/a	n/a	n/a	n/a	0	0	n/a	n/a	n/a
215.109	1	40	n/a	n/a	1	n/a	n/a	n/a	n/a	n/a	2.9104e-11	0	n/a	n/a	n/a
217.1256	1	10	2737	2737	1	1	0	0	0.7	0.45947	0.1	0	0.6	0.73877	18
219.8754	1	20	n/a	n/a	1	n/a	n/a	n/a	n/a	n/a	-0.1	0	n/a	n/a	n/a
220.8914	1	80	n/a	n/a	1	n/a	n/a	n/a	n/a	n/a	0	0	n/a	n/a	n/a
220.9914	1	80	n/a	n/a	1	n/a	n/a	n/a	n/a	n/a	0	0	n/a	n/a	n/a
221.2086	1	31	n/a	n/a	1	n/a	n/a	n/a	n/a	n/a	0	0	n/a	n/a	n/a
223.2252	1	40	n/a	n/a	1	n/a	n/a	n/a	n/a	n/a	2.9104e-11	0	n/a	n/a	n/a
225.2418	1	10	2092.6	2092.6	1	1	0	0	0.5	0.63856	0.1	0	0.3	0.23856	19
227.3416	1	20	n/a	n/a	1	n/a	n/a	n/a	n/a	n/a	-0.1	0	n/a	n/a	n/a
228.6506	1	80	n/a	n/a	1	n/a	n/a	n/a	n/a	n/a	0	0	n/a	n/a	n/a
228.7506	1	80	n/a	n/a	1	n/a	n/a	n/a	n/a	n/a	0	0	n/a	n/a	n/a
228.9582	1	30	n/a	n/a	1	n/a	n/a	n/a	n/a	n/a	0.1	0	n/a	n/a	n/a
230.9748	1	40	n/a	n/a	1	n/a	n/a	n/a	n/a	n/a	0	0	n/a	n/a	n/a
232.9912	1	10	1782.9	1782.9	1	1	0	0	0.5	0.99383	-0.1	0	0.1	0.19383	20
234.7912	1	20	n/a	n/a	1	n/a	n/a	n/a	n/a	n/a	0.1	0	n/a	n/a	n/a
236.4692	1	80	n/a	n/a	1	n/a	n/a	n/a	n/a	n/a	0	0	n/a	n/a	n/a
236.5692	1	80	n/a	n/a	1	n/a	n/a	n/a	n/a	n/a	0	0	n/a	n/a	n/a
236.7744	1	31	n/a	n/a	1	n/a	n/a	n/a	n/a	n/a	-2.9104e-11	0	n/a	n/a	n/a
238.791	1	40	n/a	n/a	1	n/a	n/a	n/a	n/a	n/a	2.9104e-11	0	n/a	n/a	n/a
249.8236	1	10	1414.2	1414.2	1	1	0	0	0	0	2.9104e-11	0	0.9	0.9	21
251.2402	1	20	n/a	n/a	1	n/a	n/a	n/a	n/a	n/a	-2.9104e-11	0	n/a	n/a	n/a
253.2262	1	80	n/a	n/a	1	n/a	n/a	n/a	n/a	n/a	0	0	n/a	n/a	n/a
253.3262	1	80	n/a	n/a	1	n/a	n/a	n/a	n/a	n/a	0	0	n/a	n/a	n/a
253.54	1	31	n/a	n/a	1	n/a	n/a	n/a	n/a	n/a	-0.1	0	n/a	n/a	n/a
255.5566	1	10	1697.1	1697.1	1	1	0	0	0	0	0.1	0	0.7	0.7	22
257.2566	1	20	n/a	n/a	1	n/a	n/a	n/a	n/a	n/a	0.1	0	n/a	n/a	n/a
258.2686	1	80	n/a	n/a	1	n/a	n/a	n/a	n/a	n/a	0	0	n/a	n/a	n/a
258.3686	1	80	n/a	n/a	1	n/a	n/a	n/a	n/a	n/a	0	0	n/a	n/a	n/a
258.573	1	31	n/a	n/a	1	n/a	n/a	n/a	n/a	n/a	-0.2	0	n/a	n/a	n/a
260.5896	1	10	1704	1704	1	1	0	0	0	0	0.1	0	0.3	0.3	23
262.3062	1	20	n/a	n/a	1	n/a	n/a	n/a	n/a	n/a	-2.9104e-11	0	n/a	n/a	n/a
263.6482	1	80	n/a	n/a	1	n/a	n/a	n/a	n/a	n/a	-0.1	0	n/a	n/a	n/a
263.7482	1	80	n/a	n/a	1	n/a	n/a	n/a	n/a	n/a	0	0	n/a	n/a	n/a
263.9562	1	31	n/a	n/a	1	n/a	n/a	n/a	n/a	n/a	0.2	0	n/a	n/a	n/a
265.9726	1	10	736.7	736.7	1	1	0	0	0	0	-0.2	0	0.7	0.7	24
266.7226	1	20	n/a	n/a	1	n/a	n/a	n/a	n/a	n/a	0.1	0	n/a	n/a	n/a
268.0776	1	80	n/a	n/a	1	n/a	n/a	n/a	n/a	n/a	0	0	n/a	n/a	n/a
268.1776	1	80	n/a	n/a	1	n/a	n/a	n/a	n/a	n/a	0	0	n/a	n/a	n/a
268.3892	1	31	n/a	n/a	1	n/a	n/a	n/a	n/a	n/a	0	0	n/a	n/a	n/a
270.4058	1	10	735.6	735.6	1	1	0	0	0	0	0.1	0	0.7	0.7	25
271.1556	1	20	n/a	n/a	1	n/a	n/a	n/a	n/a	n/a	-0.2	0	n/a	n/a	n/a
272.9856	1	80	n/a	n/a	1	n/a	n/a	n/a	n/a	n/a	0	0	n/a	n/a	n/a
273.0856	1	80	n/a	n/a	1	n/a	n/a	n/a	n/a	n/a	0	0	n/a	n/a	n/a
273.2888	1	30	n/a	n/a	1	n/a	n/a	n/a	n/a	n/a	0	0	n/a	n/a	n/a
275.3054	1	10	1227.8	1227.8	1	1	0	0	0	0	0.1	0	0.7	0.7	26
276.5386	1	20	n/a	n/a	1	n/a	n/a	n/a	n/a	n/a	-0.1	0	n/a	n/a	n/a
277.8578	1	80	n/a	n/a	1	n/a	n/a	n/a	n/a	n/a	0.2	0	n/a	n/a	n/a
277.9578	1	80	n/a	n/a	1	n/a	n/a	n/a	n/a	n/a	0	0	n/a	n/a	n/a
278.172	1	31	n/a	n/a	1	n/a	n/a	n/a	n/a	n/a	0	0	n/a	n/a	n/a
280.1884	1	10	1608.6	1608.6	1	1	0	0	0	0	-0.2	0	0.5	0.5	27
281.805	1	20	n/a	n/a	1	n/a	n/a	n/a	n/a	n/a	0.1	0	n/a	n/a	n/a
283.328	1	80	n/a	n/a	1	n/a	n/a	n/a	n/a	n/a	-0.1	0	n/a	n/a	n/a
283.428	1	80	n/a	n/a	1	n/a	n/a	n/a	n/a	n/a	0	0	n/a	n/a	n/a
283.6382	1	30	n/a	n/a	1	n/a	n/a	n/a	n/a	n/a	0.1	0	n/a	n/a	n/a
285.6548	1	10	798.2	798.2	1	1	0	0	0	0	0	0	0.7	0.7	28
286.4714	1	20	n/a	n/a	1	n/a	n/a	n/a	n/a	n/a	0	0	n/a	n/a	n/a
288.3434	1	80	n/a	n/a	1	n/a	n/a	n/a	n/a	n/a	0	0	n/a	n/a	n/a
288.4434	1	80	n/a	n/a	1	n/a	n/a	n/a	n/a	n/a	0	0	n/a	n/a	n/a
288.6546	1	31	n/a	n/a	1	n/a	n/a	n/a	n/a	n/a	0	0	n/a	n/a	n/a
290.6712	1	10	1029.6	1029.6	1	1	0	0	0	0	0	0	0.4	0.4	29
291.7044	1	20	n/a	n/a	1	n/a	n/a	n/a	n/a	n/a	0	0	n/a	n/a	n/a
292.7954	1	80	n/a	n/a	1	n/a	n/a	n/a	n/a	n/a	0	0	n/a	n/a	n/a
292.8954	1	80	n/a	n/a	1	n/a	n/a	n/a	n/a	n/a	0	0	n/a	n/a	n/a
293.1044	1	31	n/a	n/a	1	n/a	n/a	n/a	n/a	n/a	0.1	0	n/a	n/a	n/a
295.121	1	10	499.8	499.8	1	1	0	0	0	0	-5.8208e-11	0	0.8	0.8	30
295.6376	1	20	n/a	n/a	1	n/a	n/a	n/a	n/a	n/a	0	0	n/a	n/a	n/a
297.4606	1	80	n/a	n/a	1	n/a	n/a	n/a	n/a	n/a	0	0	n/a	n/a	n/a
297.5606	1	80	n/a	n/a	1	n/a	n/a	n/a	n/a	n/a	0	0	n/a	n/a	n/a
297.7708	1	31	n/a	n/a	1	n/a	n/a	n/a	n/a	n/a	0	0	n/a	n/a	n/a
308.8034	1	10	2337	2337	1	1	0	0	0.4	0.01549	-0.1	0	0.8	0.67699	31
311.1532	1	20	n/a	n/a	1	n/a	n/a	n/a	n/a	n/a	0	0	n/a	n/a	n/a
312.8954	1	80	n/a	n/a	1	n/a	n/a	n/a	n/a	n/a	0.1	0	n/a	n/a	n/a
312.9954	1	80	n/a	n/a	1	n/a	n/a	n/a	n/a	n/a	0	0	n/a	n/a	n/a
313.2032	1	31	n/a	n/a	1	n/a	n/a	n/a	n/a	n/a	0	0	n/a	n/a	n/a
315.2198	1	40	n/a	n/a	1	n/a	n/a	n/a	n/a	n/a	-5.8208e-11	0	n/a	n/a	n/a
317.2362	1	10	1760	1760	1	1	0	0	0.5	0.5434	-0.1	0	0.7	0.9434	32
319.0028	1	20	n/a	n/a	1	n/a	n/a	n/a	n/a	n/a	0	0	n/a	n/a	n/a
320.7548	1	80	n/a	n/a	1	n/a	n/a	n/a	n/a	n/a	0	0	n/a	n/a	n/a
320.8548	1	80	n/a	n/a	1	n/a	n/a	n/a	n/a	n/a	0	0	n/a	n/a	n/a
321.0694	1	31	n/a	n/a	1	n/a	n/a	n/a	n/a	n/a	0.1	0	n/a	n/a	n/a
323.086	1	40	n/a	n/a	1	n/a	n/a	n/a	n/a	n/a	0.1	0	n/a	n/a	n/a
325.1024	1	10	4005.5	4005.5	1	1	0	0	0.7	0.66838	-0.2	0	0.5	0.89288	33
329.1188	1	20	n/a	n/a	1	n/a	n/a	n/a	n/a	n/a	0	0	n/a	n/a	n/a
330.602	1	80	n/a	n/a	1	n/a	n/a	n/a	n/a	n/a	0.2	0	n/a	n/a	n/a
330.702	1	80	n/a	n/a	1	n/a	n/a	n/a	n/a	n/a	0	0	n/a	n/a	n/a
330.9188	1	30	n/a	n/a	1	n/a	n/a	n/a	n/a	n/a	-0.1	0	n/a	n/a	n/a
332.9354	1	40	n/a	n/a	1	n/a	n/a	n/a	n/a	n/a	0.1	0	n/a	n/a	n/a
334.9518	1	10	1579.9	1579.9	1	1	0	0	0.8	0.83741	-0.2	0	0.2	0.34964	34
336.5352	1	20	n/a	n/a	1	n/a	n/a	n/a	n/a	n/a	0.2	0	n/a	n/a	n/a
338.0042	1	80	n/a	n/a	1	n/a	n/a	n/a	n/a	n/a	-0.1	0	n/a	n/a	n/a
338.1042	1	80	n/a	n/a	1	n/a	n/a	n/a	n/a	n/a	0	0	n/a	n/a	n/a
338.3184	1	31	n/a	n/a	1	n/a	n/a	n/a	n/a	n/a	0.1	0	n/a	n/a	n/a
340.3348	1	40	n/a	n/a	1	n/a	n/a	n/a	n/a	n/a	-0.2	0	n/a	n/a	n/a
342.3514	1	10	1444.3	1444.3	1	1	0	0	0.7	0.38017	0.1	0	0.7	0.88706	35
343.8014	1	20	n/a	n/a	1	n/a	n/a	n/a	n/a	n/a	0.1	0	n/a	n/a	n/a
345.4804	1	80	n/a	n/a	1	n/a	n/a	n/a	n/a	n/a	-0.1	0	n/a	n/a	n/a
345.5804	1	80	n/a	n/a	1	n/a	n/a	n/a	n/a	n/a	0	0	n/a	n/a	n/a
345.7846	1	30	n/a	n/a	1	n/a	n/a	n/a	n/a	n/a	-5.8208e-11	0	n/a	n/a	n/a
347.8012	1	40	n/a	n/a	1	n/a	n/a	n/a	n/a	n/a	0.1	0	n/a	n/a	n/a
349.8176	1	10	1097.8	1097.8	1	1	0	0	0.8	0.94307	-0.2	0	0.2	0.77227	36
350.9342	1	20	n/a	n/a	1	n/a	n/a	n/a	n/a	n/a	17.9	0	n/a	n/a	n/a
352.0124	1	80	n/a	n/a	1	n/a	n/a	n/a	n/a	n/a	-17.9	0	n/a	n/a	n/a
352.1124	1	80	n/a	n/a	1	n/a	n/a	n/a	n/a	n/a	0	0	n/a	n/a	n/a
352.3176	1	30	n/a	n/a	1	n/a	n/a	n/a	n/a	n/a	0.2	0	n/a	n/a	n/a
354.334	1	40	n/a	n/a	1	n/a	n/a	n/a	n/a	n/a	-0.1	0	n/a	n/a	n/a
356.3506	1	10	2196.7	2196.7	1	1	0	0	0.5	0.63454	0	0	0.6	0.83454	37
358.5504	1	20	n/a	n/a	1	n/a	n/a	n/a	n/a	n/a	-0.1	0	n/a	n/a	n/a
360.1464	1	80	n/a	n/a	1	n/a	n/a	n/a	n/a	n/a	0	0	n/a	n/a	n/a
360.2464	1	80	n/a	n/a	1	n/a	n/a	n/a	n/a	n/a	0	0	n/a	n/a	n/a
360.4504	1	31	n/a	n/a	1	n/a	n/a	n/a	n/a	n/a	0.2	0	n/a	n/a	n/a
362.467	1	40	n/a	n/a	1	n/a	n/a	n/a	n/a	n/a	0	0	n/a	n/a	n/a
364.4834	1	10	1183.7	1183.7	1	1	0	0	0.5	0.76916	-0.1	0	0.4	0.56916	38
365.6834	1	20	n/a	n/a	1	n/a	n/a	n/a	n/a	n/a	0	0	n/a	n/a	n/a
367.1634	1	80	n/a	n/a	1	n/a	n/a	n/a	n/a	n/a	0	0	n/a	n/a	n/a
367.2634	1	80	n/a	n/a	1	n/a	n/a	n/a	n/a	n/a	0	0	n/a	n/a	n/a
367.4666	1	30	n/a	n/a	1	n/a	n/a	n/a	n/a	n/a	-5.8208e-11	0	n/a	n/a	n/a
369.4832	1	40	n/a	n/a	1	n/a	n/a	n/a	n/a	n/a	0.1	0	n/a	n/a	n/a
371.4996	1	10	1687.3	1687.3	1	1	0	0	0.6	0.71438	-0.2	0	0.1	0.03125	39
373.1996	1	20	n/a	n/a	1	n/a	n/a	n/a	n/a	n/a	0.1	0	n/a	n/a	n/a
374.5966	1	80	n/a	n/a	1	n/a	n/a	n/a	n/a	n/a	0	0	n/a	n/a	n/a
374.6966	1	80	n/a	n/a	1	n/a	n/a	n/a	n/a	n/a	0	0	n/a	n/a	n/a
374.8994	1	31	n/a	n/a	1	n/a	n/a	n/a	n/a	n/a	-0.1	0	n/a	n/a	n/a
376.916	1	40	n/a	n/a	1	n/a	n/a	n/a	n/a	n/a	0.1	0	n/a	n/a	n/a
378.9326	1	10	878.3	878.3	1	1	0	0	0.5	0.55183	0.1	0	0.3	0.15183	40
379.8158	1	20	n/a	n/a	1	n/a	n/a	n/a	n/a	n/a	-0.1	0	n/a	n/a	n/a
381.4008	1	80	n/a	n/a	1	n/a	n/a	n/a	n/a	n/a	-0.1	0	n/a	n/a	n/a
381.5008	1	80	n/a	n/a	1	n/a	n/a	n/a	n/a	n/a	0	0	n/a	n/a	n/a
381.7158	1	31	n/a	n/a	1	n/a	n/a	n/a	n/a	n/a	0.2	0	n/a	n/a	n/a
383.7324	1	40	n/a	n/a	1	n/a	n/a	n/a	n/a	n/a	5.8208e-11	0	n/a	n/a	n/a
430.8628	1	10	1170.8	1170.8	1	0	1	0	0	0	-5.8208e-11	0	0.7	0.7	1
432.046	1	20	n/a	n/a	1	n/a	n/a	n/a	n/a	n/a	-0.1	0	n/a	n/a	n/a
433.1492	1	80	n/a	n/a	1	n/a	n/a	n/a	n/a	n/a	0.2	0	n/a	n/a	n/a
433.2492	1	80	n/a	n/a	1	n/a	n/a	n/a	n/a	n/a	0	0	n/a	n/a	n/a
433.4626	1	31	n/a	n/a	1	n/a	n/a	n/a	n/a	n/a	-0.2	0	n/a	n/a	n/a
435.4792	1	10	1754.3	1754.3	1	0	1	0	0	0	0.1	0	0.4	0.4	2
437.2458	1	20	n/a	n/a	1	n/a	n/a	n/a	n/a	n/a	-5.8208e-11	0	n/a	n/a	n/a
438.9658	1	80	n/a	n/a	1	n/a	n/a	n/a	n/a	n/a	0	0	n/a	n/a	n/a
439.0658	1	80	n/a	n/a	1	n/a	n/a	n/a	n/a	n/a	0	0	n/a	n/a	n/a
439.279	1	30	n/a	n/a	1	n/a	n/a	n/a	n/a	n/a	0	0	n/a	n/a	n/a
441.2956	1	10	1041.9	1041.9	1	0	1	0	0	0	0.1	0	0.2	0.2	3
442.3454	1	20	n/a	n/a	1	n/a	n/a	n/a	n/a	n/a	-0.2	0	n/a	n/a	n/a
443.8386	1	80	n/a	n/a	1	n/a	n/a	n/a	n/a	n/a	0.2	0	n/a	n/a	n/a
443.9386	1	80	n/a	n/a	1	n/a	n/a	n/a	n/a	n/a	0	0	n/a	n/a	n/a
444.1454	1	30	n/a	n/a	1	n/a	n/a	n/a	n/a	n/a	5.8208e-11	0	n/a	n/a	n/a
446.162	1	10	1151.4	1151.4	1	0	1	0	0	0	0	0	0.9	0.9	4
447.3286	1	20	n/a	n/a	1	n/a	n/a	n/a	n/a	n/a	-5.8208e-11	0	n/a	n/a	n/a
449.0726	1	80	n/a	n/a	1	n/a	n/a	n/a	n/a	n/a	0	0	n/a	n/a	n/a
449.1726	1	80	n/a	n/a	1	n/a	n/a	n/a	n/a	n/a	0	0	n/a	n/a	n/a
449.3784	1	31	n/a	n/a	1	n/a	n/a	n/a	n/a	n/a	-0.1	0	n/a	n/a	n/a
451.395	1	10	702.2	702.2	1	0	1	0	0	0	0.1	0	0.9	0.9	5
452.1116	1	20	n/a	n/a	1	n/a	n/a	n/a	n/a	n/a	-5.8208e-11	0	n/a	n/a	n/a
453.6036	1	80	n/a	n/a	1	n/a	n/a	n/a	n/a	n/a	-0.1	0	n/a	n/a	n/a
453.7036	1	80	n/a	n/a	1	n/a	n/a	n/a	n/a	n/a	0	0	n/a	n/a	n/a
453.9114	1	31	n/a	n/a	1	n/a	n/a	n/a	n/a	n/a	5.8208e-11	0	n/a	n/a	n/a
455.928	1	10	761	761	1	0	1	0	0	0	-5.8208e-11	0	0.2	0.2	6
456.6946	1	20	n/a	n/a	1	n/a	n/a	n/a	n/a	n/a	0	0	n/a	n/a	n/a
458.0936	1	80	n/a	n/a	1	n/a	n/a	n/a	n/a	n/a	0	0	n/a	n/a	n/a
458.1936	1	80	n/a	n/a	1	n/a	n/a	n/a	n/a	n/a	0	0	n/a	n/a	n/a
458.4112	1	31	n/a	n/a	1	n/a	n/a	n/a	n/a	n/a	0.1	0	n/a	n/a	n/a
460.4278	1	10	1813.2	1813.2	1	0	1	0	0	0	0	0	0.4	0.4	7
462.2442	1	20	n/a	n/a	1	n/a	n/a	n/a	n/a	n/a	-0.1	0	n/a	n/a	n/a
463.8114	1	80	n/a	n/a	1	n/a	n/a	n/a	n/a	n/a	0.1	0	n/a	n/a	n/a
463.9114	1	80	n/a	n/a	1	n/a	n/a	n/a	n/a	n/a	0	0	n/a	n/a	n/a
464.1276	1	30	n/a	n/a	1	n/a	n/a	n/a	n/a	n/a	-5.8208e-11	0	n/a	n/a	n/a
466.144	1	10	960.8	960.8	1	0	1	0	0	0	-0.1	0	0.6	0.6	8
467.1106	1	20	n/a	n/a	1	n/a	n/a	n/a	n/a	n/a	0	0	n/a	n/a	n/a
468.1976	1	80	n/a	n/a	1	n/a	n/a	n/a	n/a	n/a	0	0	n/a	n/a	n/a
468.2976	1	80	n/a	n/a	1	n/a	n/a	n/a	n/a	n/a	0	0	n/a	n/a	n/a
468.5106	1	31	n/a	n/a	1	n/a	n/a	n/a	n/a	n/a	0.1	0	n/a	n/a	n/a
470.5272	1	10	609.6	609.6	1	0	1	0	0	0	5.8208e-11	0	0.7	0.7	9
471.1438	1	20	n/a	n/a	1	n/a	n/a	n/a	n/a	n/a	0	0	n/a	n/a	n/a
472.5868	1	80	n/a	n/a	1	n/a	n/a	n/a	n/a	n/a	0	0	n/a	n/a	n/a
472.6868	1	80	n/a	n/a	1	n/a	n/a	n/a	n/a	n/a	0	0	n/a	n/a	n/a
472.8936	1	31	n/a	n/a	1	n/a	n/a	n/a	n/a	n/a	-0.1	0	n/a	n/a	n/a
474.9102	1	10	642.5	642.5	1	0	1	0	0	0	0.1	0	0.9	0.9	10
475.5602	1	20	n/a	n/a	1	n/a	n/a	n/a	n/a	n/a	0	0	n/a	n/a	n/a
476.9372	1	80	n/a	n/a	1	n/a	n/a	n/a	n/a	n/a	0	0	n/a	n/a	n/a
477.0372	1	80	n/a	n/a	1	n/a	n/a	n/a	n/a	n/a	0	0	n/a	n/a	n/a
477.2434	1	30	n/a	n/a	1	n/a	n/a	n/a	n/a	n/a	0	0	n/a	n/a	n/a
488.276	1	10	1500.2	1500.2	1	0	1	0	0.4	0.040688	-0.1	0	0.1	0.020833	11
489.7926	1	20	n/a	n/a	1	n/a	n/a	n/a	n/a	n/a	0	0	n/a	n/a	n/a
491.7286	1	80	n/a	n/a	1	n/a	n/a	n/a	n/a	n/a	0	0	n/a	n/a	n/a
491.8286	1	80	n/a	n/a	1	n/a	n/a	n/a	n/a	n/a	0	0	n/a	n/a	n/a
492.0426	1	30	n/a	n/a	1	n/a	n/a	n/a	n/a	n/a	0.2	0	n/a	n/a	n/a
494.059	1	40	n/a	n/a	1	n/a	n/a	n/a	n/a	n/a	-0.2	0	n/a	n/a	n/a
496.0756	1	10	1076.5	1076.5	1	0	1	0	0.7	0.56237	0.1	0	0.1	0.041667	12
497.1588	1	20	n/a	n/a	1	n/a	n/a	n/a	n/a	n/a	-0.1	0	n/a	n/a	n/a
498.8	1	80	n/a	n/a	1	n/a	n/a	n/a	n/a	n/a	0.2	0	n/a	n/a	n/a
498.9	1	80	n/a	n/a	1	n/a	n/a	n/a	n/a	n/a	0	0	n/a	n/a	n/a
499.1088	1	31	n/a	n/a	1	n/a	n/a	n/a	n/a	n/a	-0.1	0	n/a	n/a	n/a
501.1254	1	40	n/a	n/a	1	n/a	n/a	n/a	n/a	n/a	0.1	0	n/a	n/a	n/a
503.1418	1	10	3178	3178	1	0	1	0	0.7	0.31685	-0.2	0	0.4	0.041667	13
506.325	1	20	n/a	n/a	1	n/a	n/a	n/a	n/a	n/a	0.1	0	n/a	n/a	n/a
508.277	1	80	n/a	n/a	1	n/a	n/a	n/a	n/a	n/a	0	0	n/a	n/a	n/a
508.377	1	80	n/a	n/a	1	n/a	n/a	n/a	n/a	n/a	0	0	n/a	n/a	n/a
508.5916	1	30	n/a	n/a	1	n/a	n/a	n/a	n/a	n/a	0.1	0	n/a	n/a	n/a
510.608	1	40	n/a	n/a	1	n/a	n/a	n/a	n/a	n/a	-0.2	0	n/a	n/a	n/a
512.6246	1	10	975.1	975.1	1	0	1	0	0.4	0.77441	0.1	0	0.3	0.34961	14
513.608	1	20	n/a	n/a	1	n/a	n/a	n/a	n/a	n/a	0.1	0	n/a	n/a	n/a
514.773	1	80	n/a	n/a	1	n/a	n/a	n/a	n/a	n/a	0	0	n/a	n/a	n/a
514.873	1	80	n/a	n/a	1	n/a	n/a	n/a	n/a	n/a	0	0	n/a	n/a	n/a
515.0744	1	31	n/a	n/a	1	n/a	n/a	n/a	n/a	n/a	-0.2	0	n/a	n/a	n/a
517.091	1	40	n/a	n/a	1	n/a	n/a	n/a	n/a	n/a	0.1	0	n/a	n/a	n/a
519.1076	1	10	636	636	1	0	1	0	0.8	0.80264	-5.8208e-11	0	0.2	0.21058	15
519.7576	1	20	n/a	n/a	1	n/a	n/a	n/a	n/a	n/a	0.1	0	n/a	n/a	n/a
520.9916	1	80	n/a	n/a	1	n/a	n/a	n/a	n/a	n/a	0	0	n/a	n/a	n/a
521.0916	1	80	n/a	n/a	1	n/a	n/a	n/a	n/a	n/a	0	0	n/a	n/a	n/a
521.3074	1	30	n/a	n/a	1	n/a	n/a	n/a	n/a	n/a	-0.1	0	n/a	n/a	n/a
523.324	1	40	n/a	n/a	1	n/a	n/a	n/a	n/a	n/a	0	0	n/a	n/a	n/a
525.3406	1	10	2226.9	2226.9	1	0	1	0	0.6	0.10092	0.1	0	0.9	0.90138	16
527.5738	1	20	n/a	n/a	1	n/a	n/a	n/a	n/a	n/a	1.1642e-10	0	n/a	n/a	n/a
529.2818	1	80	n/a	n/a	1	n/a	n/a	n/a	n/a	n/a	0	0	n/a	n/a	n/a
529.3818	1	80	n/a	n/a	1	n/a	n/a	n/a	n/a	n/a	0	0	n/a	n/a	n/a
529.5902	1	30	n/a	n/a	1	n/a	n/a	n/a	n/a	n/a	-0.1	0	n/a	n/a	n/a
531.6068	1	40	n/a	n/a	1	n/a	n/a	n/a	n/a	n/a	1.1642e-10	0	n/a	n/a	n/a
533.6234	1	10	1351.9	1351.9	1	0	1	0	0.5	0.32174	0.1	0	0.4	0.12174	17
534.99	1	20	n/a	n/a	1	n/a	n/a	n/a	n/a	n/a	-1.1642e-10	0	n/a	n/a	n/a
536.655	1	80	n/a	n/a	1	n/a	n/a	n/a	n/a	n/a	0	0	n/a	n/a	n/a
536.755	1	80	n/a	n/a	1	n/a	n/a	n/a	n/a	n/a	0	0	n/a	n/a	n/a
536.9566	1	31	n/a	n/a	1	n/a	n/a	n/a	n/a	n/a	0	0	n/a	n/a	n/a
538.973	1	40	n/a	n/a	1	n/a	n/a	n/a	n/a	n/a	-0.1	0	n/a	n/a	n/a
540.9896	1	10	1553.4	1553.4	1	0	1	0	0.6	0.83737	0	0	0.2	0.25606	18
542.5562	1	20	n/a	n/a	1	n/a	n/a	n/a	n/a	n/a	0.1	0	n/a	n/a	n/a
543.7942	1	80	n/a	n/a	1	n/a	n/a	n/a	n/a	n/a	-0.1	0	n/a	n/a	n/a
543.8942	1	80	n/a	n/a	1	n/a	n/a	n/a	n/a	n/a	0	0	n/a	n/a	n/a
544.106	1	31	n/a	n/a	1	n/a	n/a	n/a	n/a	n/a	0	0	n/a	n/a	n/a
546.1226	1	40	n/a	n/a	1	n/a	n/a	n/a	n/a	n/a	0	0	n/a	n/a	n/a
548.1392	1	10	1443.8	1443.8	1	0	1	0	0.6	0.97254	0.1	0	0.1	0.20881	19
549.589	1	20	n/a	n/a	1	n/a	n/a	n/a	n/a	n/a	-0.1	0	n/a	n/a	n/a
551.5172	1	80	n/a	n/a	1	n/a	n/a	n/a	n/a	n/a	0.1	0	n/a	n/a	n/a
551.6172	1	80	n/a	n/a	1	n/a	n/a	n/a	n/a	n/a	0	0	n/a	n/a	n/a
551.8224	1	30	n/a	n/a	1	n/a	n/a	n/a	n/a	n/a	0.1	0	n/a	n/a	n/a
553.8388	1	40	n/a	n/a	1	n/a	n/a	n/a	n/a	n/a	-0.2	0	n/a	n/a	n/a
555.8554	1	10	1135.4	1135.4	1	0	1	0	0.7	0.5132	0.1	0	0.1	0.041667	20
557.0054	1	20	n/a	n/a	1	n/a	n/a	n/a	n/a	n/a	0	0	n/a	n/a	n/a
558.6894	1	80	n/a	n/a	1	n/a	n/a	n/a	n/a	n/a	0	0	n/a	n/a	n/a
558.7894	1	80	n/a	n/a	1	n/a	n/a	n/a	n/a	n/a	0	0	n/a	n/a	n/a
559.0052	1	30	n/a	n/a	1	n/a	n/a	n/a	n/a	n/a	-1.1642e-10	0	n/a	n/a	n/a
561.0218	1	40	n/a	n/a	1	n/a	n/a	n/a	n/a	n/a	1.1642e-10	0	n/a	n/a	n/a
572.0544	1	10	1320	1320	1	0	1	0	0	0	0	0	0.9	0.9	21
573.3876	1	20	n/a	n/a	1	n/a	n/a	n/a	n/a	n/a	-0.1	0	n/a	n/a	n/a
575.1608	1	80	n/a	n/a	1	n/a	n/a	n/a	n/a	n/a	0.2	0	n/a	n/a	n/a
575.2608	1	80	n/a	n/a	1	n/a	n/a	n/a	n/a	n/a	0	0	n/a	n/a	n/a
575.4708	1	31	n/a	n/a	1	n/a	n/a	n/a	n/a	n/a	-0.2	0	n/a	n/a	n/a
577.4874	1	10	926.9	926.9	1	0	1	0	0	0	0.1	0	0.3	0.3	22
578.4208	1	20	n/a	n/a	1	n/a	n/a	n/a	n/a	n/a	0.1	0	n/a	n/a	n/a
579.7598	1	80	n/a	n/a	1	n/a	n/a	n/a	n/a	n/a	0	0	n/a	n/a	n/a
579.8598	1	80	n/a	n/a	1	n/a	n/a	n/a	n/a	n/a	0	0	n/a	n/a	n/a
580.0706	1	31	n/a	n/a	1	n/a	n/a	n/a	n/a	n/a	-0.1	0	n/a	n/a	n/a
582.0872	1	10	599	599	1	0	1	0	0	0	0	0	0.7	0.7	23
582.7038	1	20	n/a	n/a	1	n/a	n/a	n/a	n/a	n/a	1.1642e-10	0	n/a	n/a	n/a
584.0068	1	80	n/a	n/a	1	n/a	n/a	n/a	n/a	n/a	0	0	n/a	n/a	n/a
584.1068	1	80	n/a	n/a	1	n/a	n/a	n/a	n/a	n/a	0	0	n/a	n/a	n/a
584.3204	1	31	n/a	n/a	1	n/a	n/a	n/a	n/a	n/a	0	0	n/a	n/a	n/a
586.337	1	10	893.2	893.2	1	0	1	0	0	0	0.1	0	0.6	0.6	24
587.2368	1	20	n/a	n/a	1	n/a	n/a	n/a	n/a	n/a	-0.1	0	n/a	n/a	n/a
588.3608	1	80	n/a	n/a	1	n/a	n/a	n/a	n/a	n/a	-0.1	0	n/a	n/a	n/a
588.4608	1	80	n/a	n/a	1	n/a	n/a	n/a	n/a	n/a	0	0	n/a	n/a	n/a
588.6702	1	31	n/a	n/a	1	n/a	n/a	n/a	n/a	n/a	0.2	0	n/a	n/a	n/a
590.6866	1	10	2719.3	2719.3	1	0	1	0	0	0	-0.1	0	0.4	0.4	25
593.4198	1	20	n/a	n/a	1	n/a	n/a	n/a	n/a	n/a	1.1642e-10	0	n/a	n/a	n/a
595.1018	1	80	n/a	n/a	1	n/a	n/a	n/a	n/a	n/a	0	0	n/a	n/a	n/a
595.2018	1	80	n/a	n/a	1	n/a	n/a	n/a	n/a	n/a	0	0	n/a	n/a	n/a
595.4198	1	30	n/a	n/a	1	n/a	n/a	n/a	n/a	n/a	0.1	0	n/a	n/a	n/a
597.4362	1	10	673.6	673.6	1	0	1	0	0	0	-0.1	0	0.6	0.6	26
598.1196	1	20	n/a	n/a	1	n/a	n/a	n/a	n/a	n/a	0.1	0	n/a	n/a	n/a
599.7986	1	80	n/a	n/a	1	n/a	n/a	n/a	n/a	n/a	0	0	n/a	n/a	n/a
599.8986	1	80	n/a	n/a	1	n/a	n/a	n/a	n/a	n/a	0	0	n/a	n/a	n/a
600.1028	1	30	n/a	n/a	1	n/a	n/a	n/a	n/a	n/a	0	0	n/a	n/a	n/a
602.1194	1	10	790.4	790.4	1	0	1	0	0	0	0	0	0.2	0.2	27
602.9192	1	20	n/a	n/a	1	n/a	n/a	n/a	n/a	n/a	-0.1	0	n/a	n/a	n/a
603.9592	1	80	n/a	n/a	1	n/a	n/a	n/a	n/a	n/a	-0.1	0	n/a	n/a	n/a
604.0592	1	80	n/a	n/a	1	n/a	n/a	n/a	n/a	n/a	0	0	n/a	n/a	n/a
604.2692	1	30	n/a	n/a	1	n/a	n/a	n/a	n/a	n/a	0.2	0	n/a	n/a	n/a
606.2858	1	10	3295.8	3295.8	1	0	1	0	0	0	1.1642e-10	0	0.6	0.6	28
609.5856	1	20	n/a	n/a	1	n/a	n/a	n/a	n/a	n/a	0	0	n/a	n/a	n/a
610.8116	1	80	n/a	n/a	1	n/a	n/a	n/a	n/a	n/a	0	0	n/a	n/a	n/a
610.9116	1	80	n/a	n/a	1	n/a	n/a	n/a	n/a	n/a	0	0	n/a	n/a	n/a
611.1188	1	30	n/a	n/a	1	n/a	n/a	n/a	n/a	n/a	0	0	n/a	n/a	n/a
613.1354	1	10	1214.1	1214.1	1	0	1	0	0	0	0	0	0.7	0.7	29
614.352	1	20	n/a	n/a	1	n/a	n/a	n/a	n/a	n/a	0	0	n/a	n/a	n/a
616.345	1	80	n/a	n/a	1	n/a	n/a	n/a	n/a	n/a	0	0	n/a	n/a	n/a
616.445	1	80	n/a	n/a	1	n/a	n/a	n/a	n/a	n/a	0	0	n/a	n/a	n/a
616.6518	1	30	n/a	n/a	1	n/a	n/a	n/a	n/a	n/a	0	0	n/a	n/a	n/a
618.6684	1	10	2992.9	2992.9	1	0	1	0	0	0	0	0	0.6	0.6	30
621.6682	1	20	n/a	n/a	1	n/a	n/a	n/a	n/a	n/a	-1.1642e-10	0	n/a	n/a	n/a
622.7362	1	80	n/a	n/a	1	n/a	n/a	n/a	n/a	n/a	0	0	n/a	n/a	n/a
622.8362	1	80	n/a	n/a	1	n/a	n/a	n/a	n/a	n/a	0	0	n/a	n/a	n/a
623.0514	1	30	n/a	n/a	1	n/a	n/a	n/a	n/a	n/a	1.1642e-10	0	n/a	n/a	n/a
634.084	1	10	2216.9	2216.9	1	0	1	0	0.6	0.87788	-0.1	0	0.1	0.066822	31
636.3172	1	20	n/a	n/a	1	n/a	n/a	n/a	n/a	n/a	-1.1642e-10	0	n/a	n/a	n/a
637.8102	1	80	n/a	n/a	1	n/a	n/a	n/a	n/a	n/a	0	0	n/a	n/a	n/a
637.9102	1	80	n/a	n/a	1	n/a	n/a	n/a	n/a	n/a	0	0	n/a	n/a	n/a
638.1172	1	30	n/a	n/a	1	n/a	n/a	n/a	n/a	n/a	0.1	0	n/a	n/a	n/a
640.1338	1	40	n/a	n/a	1	n/a	n/a	n/a	n/a	n/a	0.1	0	n/a	n/a	n/a
642.1502	1	10	1846.5	1846.5	1	0	1	0	0.5	0.69873	-0.2	0	0.3	0.29873	32
644.0002	1	20	n/a	n/a	1	n/a	n/a	n/a	n/a	n/a	0.1	0	n/a	n/a	n/a
645.3482	1	80	n/a	n/a	1	n/a	n/a	n/a	n/a	n/a	0	0	n/a	n/a	n/a
645.4482	1	80	n/a	n/a	1	n/a	n/a	n/a	n/a	n/a	0	0	n/a	n/a	n/a
645.65	1	31	n/a	n/a	1	n/a	n/a	n/a	n/a	n/a	-0.1	0	n/a	n/a	n/a
647.6666	1	40	n/a	n/a	1	n/a	n/a	n/a	n/a	n/a	0.1	0	n/a	n/a	n/a
649.6832	1	10	937.5	937.5	1	0	1	0	0.8	0.097811	0.1	0	0.7	0.0625	33
650.633	1	20	n/a	n/a	1	n/a	n/a	n/a	n/a	n/a	-0.2	0	n/a	n/a	n/a
652.3042	1	80	n/a	n/a	1	n/a	n/a	n/a	n/a	n/a	0.2	0	n/a	n/a	n/a
652.4042	1	80	n/a	n/a	1	n/a	n/a	n/a	n/a	n/a	0	0	n/a	n/a	n/a
652.6164	1	30	n/a	n/a	1	n/a	n/a	n/a	n/a	n/a	0	0	n/a	n/a	n/a
654.6328	1	40	n/a	n/a	1	n/a	n/a	n/a	n/a	n/a	-0.1	0	n/a	n/a	n/a
656.6494	1	10	2659	2659	1	0	1	0	0.5	0.28889	0	0	0.8	0.88889	34
659.316	1	20	n/a	n/a	1	n/a	n/a	n/a	n/a	n/a	0.1	0	n/a	n/a	n/a
660.955	1	80	n/a	n/a	1	n/a	n/a	n/a	n/a	n/a	0	0	n/a	n/a	n/a
661.055	1	80	n/a	n/a	1	n/a	n/a	n/a	n/a	n/a	0	0	n/a	n/a	n/a
661.2658	1	31	n/a	n/a	1	n/a	n/a	n/a	n/a	n/a	-0.1	0	n/a	n/a	n/a
663.2824	1	40	n/a	n/a	1	n/a	n/a	n/a	n/a	n/a	0.1	0	n/a	n/a	n/a
665.2988	1	10	3337.3	3337.3	1	0	1	0	0.8	0.12908	-0.2	0	0.8	0.51631	35
668.6486	1	20	n/a	n/a	1	n/a	n/a	n/a	n/a	n/a	-1.1642e-10	0	n/a	n/a	n/a
670.5448	1	80	n/a	n/a	1	n/a	n/a	n/a	n/a	n/a	0.2	0	n/a	n/a	n/a
670.6448	1	80	n/a	n/a	1	n/a	n/a	n/a	n/a	n/a	0	0	n/a	n/a	n/a
670.8486	1	30	n/a	n/a	1	n/a	n/a	n/a	n/a	n/a	0	0	n/a	n/a	n/a
672.8652	1	40	n/a	n/a	1	n/a	n/a	n/a	n/a	n/a	0	0	n/a	n/a	n/a
674.8816	1	10	1962.4	1962.4	1	0	1	0	0.8	0.30775	-0.1	0	0.7	0.73102	36
676.8482	1	20	n/a	n/a	1	n/a	n/a	n/a	n/a	n/a	-1.1642e-10	0	n/a	n/a	n/a
678.8102	1	80	n/a	n/a	1	n/a	n/a	n/a	n/a	n/a	0	0	n/a	n/a	n/a
678.9102	1	80	n/a	n/a	1	n/a	n/a	n/a	n/a	n/a	0	0	n/a	n/a	n/a
679.1148	1	30	n/a	n/a	1	n/a	n/a	n/a	n/a	n/a	0.1	0	n/a	n/a	n/a
681.1312	1	40	n/a	n/a	1	n/a	n/a	n/a	n/a	n/a	-0.1	0	n/a	n/a	n/a
683.1478	1	10	2144	2144	1	0	1	0	0.5	0.6608	1.1642e-10	0	0.2	0.060798	37
685.2976	1	20	n/a	n/a	1	n/a	n/a	n/a	n/a	n/a	0	0	n/a	n/a	n/a
686.5158	1	80	n/a	n/a	1	n/a	n/a	n/a	n/a	n/a	0.1	0	n/a	n/a	n/a
686.6158	1	80	n/a	n/a	1	n/a	n/a	n/a	n/a	n/a	0	0	n/a	n/a	n/a
686.831	1	31	n/a	n/a	1	n/a	n/a	n/a	n/a	n/a	0	0	n/a	n/a	n/a
688.8474	1	40	n/a	n/a	1	n/a	n/a	n/a	n/a	n/a	-0.1	0	n/a	n/a	n/a
690.864	1	10	1691.6	1691.6	1	0	1	0	0.6	0.21144	0	0	0.5	0.067163	38
692.564	1	20	n/a	n/a	1	n/a	n/a	n/a	n/a	n/a	0.1	0	n/a	n/a	n/a
694.382	1	80	n/a	n/a	1	n/a	n/a	n/a	n/a	n/a	0	0	n/a	n/a	n/a
694.482	1	80	n/a	n/a	1	n/a	n/a	n/a	n/a	n/a	0	0	n/a	n/a	n/a
694.6972	1	30	n/a	n/a	1	n/a	n/a	n/a	n/a	n/a	-1.1642e-10	0	n/a	n/a	n/a
696.7136	1	40	n/a	n/a	1	n/a	n/a	n/a	n/a	n/a	-0.1	0	n/a	n/a	n/a
698.7302	1	10	1297.2	1297.2	1	0	1	0	0.4	0.45416	0	0	0.8	0.96944	39
700.0302	1	20	n/a	n/a	1	n/a	n/a	n/a	n/a	n/a	0.1	0	n/a	n/a	n/a
701.1102	1	80	n/a	n/a	1	n/a	n/a	n/a	n/a	n/a	0	0	n/a	n/a	n/a
701.2102	1	80	n/a	n/a	1	n/a	n/a	n/a	n/a	n/a	0	0	n/a	n/a	n/a
701.4134	1	31	n/a	n/a	1	n/a	n/a	n/a	n/a	n/a	1.1642e-10	0	n/a	n/a	n/a
703.43	1	40	n/a	n/a	1	n/a	n/a	n/a	n/a	n/a	0	0	n/a	n/a	n/a
705.4464	1	10	2804.8	2804.8	1	0	1	0	0.8	0.81932	-0.1	0	0.9	0.9375	40
708.263	1	20	n/a	n/a	1	n/a	n/a	n/a	n/a	n/a	0.1	0	n/a	n/a	n/a
709.944	1	80	n/a	n/a	1	n/a	n/a	n/a	n/a	n/a	0	0	n/a	n/a	n/a
710.044	1	80	n/a	n/a	1	n/a	n/a	n/a	n/a	n/a	0	0	n/a	n/a	n/a
710.2462	1	31	n/a	n/a	1	n/a	n/a	n/a	n/a	n/a	-1.1642e-10	0	n/a	n/a	n/a
712.2628	1	40	n/a	n/a	1	n/a	n/a	n/a	n/a	n/a	1.1642e-10	0	n/a	n/a	n/a
759.9766	1	10	1345.5	1345.5	1	0	1	0	0	0	0.1	0	0.2	0.2	1
761.3266	1	20	n/a	n/a	1	n/a	n/a	n/a	n/a	n/a	0	0	n/a	n/a	n/a
763.0676	1	80	n/a	n/a	1	n/a	n/a	n/a	n/a	n/a	0	0	n/a	n/a	n/a
763.1676	1	80	n/a	n/a	1	n/a	n/a	n/a	n/a	n/a	0	0	n/a	n/a	n/a
763.3764	1	30	n/a	n/a	1	n/a	n/a	n/a	n/a	n/a	0	0	n/a	n/a	n/a
765.393	1	10	1769	1769	1	0	1	0	0	0	0	0	0.8	0.8	2
767.1762	1	20	n/a	n/a	1	n/a	n/a	n/a	n/a	n/a	0	0	n/a	n/a	n/a
769.0652	1	80	n/a	n/a	1	n/a	n/a	n/a	n/a	n/a	0	0	n/a	n/a	n/a
769.1652	1	80	n/a	n/a	1	n/a	n/a	n/a	n/a	n/a	0	0	n/a	n/a	n/a
769.376	1	30	n/a	n/a	1	n/a	n/a	n/a	n/a	n/a	-0.1	0	n/a	n/a	n/a
771.3926	1	10	1545.2	1545.2	1	0	1	0	0	0	0.1	0	0.2	0.2	3
772.9424	1	20	n/a	n/a	1	n/a	n/a	n/a	n/a	n/a	-0.1	0	n/a	n/a	n/a
774.0326	1	80	n/a	n/a	1	n/a	n/a	n/a	n/a	n/a	0.2	0	n/a	n/a	n/a
774.1324	1	80	n/a	n/a	1	n/a	n/a	n/a	n/a	n/a	-0.2	0	n/a	n/a	n/a
774.3424	1	30	n/a	n/a	1	n/a	n/a	n/a	n/a	n/a	0.1	0	n/a	n/a	n/a
776.359	1	10	1810.7	1810.7	1	0	1	0	0	0	0	0	0.1	0.1	4
778.1756	1	20	n/a	n/a	1	n/a	n/a	n/a	n/a	n/a	0.1	0	n/a	n/a	n/a
779.4776	1	80	n/a	n/a	1	n/a	n/a	n/a	n/a	n/a	-0.1	0	n/a	n/a	n/a
779.5776	1	80	n/a	n/a	1	n/a	n/a	n/a	n/a	n/a	0	0	n/a	n/a	n/a
779.792	1	31	n/a	n/a	1	n/a	n/a	n/a	n/a	n/a	-0.1	0	n/a	n/a	n/a
781.8086	1	10	809	809	1	0	1	0	0	0	0.1	0	0.3	0.3	5
782.6252	1	20	n/a	n/a	1	n/a	n/a	n/a	n/a	n/a	-0.1	0	n/a	n/a	n/a
784.2752	1	80	n/a	n/a	1	n/a	n/a	n/a	n/a	n/a	0	0	n/a	n/a	n/a
784.3752	1	80	n/a	n/a	1	n/a	n/a	n/a	n/a	n/a	0	0	n/a	n/a	n/a
784.5918	1	31	n/a	n/a	1	n/a	n/a	n/a	n/a	n/a	0.1	0	n/a	n/a	n/a
786.6084	1	10	1817.1	1817.1	1	0	1	0	0	0	0	0	0.5	0.5	6
788.4416	1	20	n/a	n/a	1	n/a	n/a	n/a	n/a	n/a	0	0	n/a	n/a	n/a
789.8366	1	80	n/a	n/a	1	n/a	n/a	n/a	n/a	n/a	0	0	n/a	n/a	n/a
789.9366	1	80	n/a	n/a	1	n/a	n/a	n/a	n/a	n/a	0	0	n/a	n/a	n/a
790.1414	1	31	n/a	n/a	1	n/a	n/a	n/a	n/a	n/a	-0.1	0	n/a	n/a	n/a
792.158	1	10	3451.3	3451.3	1	0	1	0	0	0	0.1	0	0.5	0.5	7
795.6244	1	20	n/a	n/a	1	n/a	n/a	n/a	n/a	n/a	-0.1	0	n/a	n/a	n/a
797.6194	1	80	n/a	n/a	1	n/a	n/a	n/a	n/a	n/a	0	0	n/a	n/a	n/a
797.7194	1	80	n/a	n/a	1	n/a	n/a	n/a	n/a	n/a	0	0	n/a	n/a	n/a
797.9244	1	31	n/a	n/a	1	n/a	n/a	n/a	n/a	n/a	0.2	0	n/a	n/a	n/a
799.9408	1	10	884.3	884.3	1	0	1	0	0	0	-0.2	0	0.9	0.9	8
800.8408	1	20	n/a	n/a	1	n/a	n/a	n/a	n/a	n/a	0.1	0	n/a	n/a	n/a
801.9248	1	80	n/a	n/a	1	n/a	n/a	n/a	n/a	n/a	0	0	n/a	n/a	n/a
802.0248	1	80	n/a	n/a	1	n/a	n/a	n/a	n/a	n/a	0	0	n/a	n/a	n/a
802.2408	1	31	n/a	n/a	1	n/a	n/a	n/a	n/a	n/a	0.1	0	n/a	n/a	n/a
804.2572	1	10	2167.7	2167.7	1	0	1	0	0	0	-0.2	0	0.1	0.1	9
806.4404	1	20	n/a	n/a	1	n/a	n/a	n/a	n/a	n/a	1.1642e-10	0	n/a	n/a	n/a
808.1536	1	80	n/a	n/a	1	n/a	n/a	n/a	n/a	n/a	0.2	0	n/a	n/a	n/a
808.2536	1	80	n/a	n/a	1	n/a	n/a	n/a	n/a	n/a	0	0	n/a	n/a	n/a
808.457	1	30	n/a	n/a	1	n/a	n/a	n/a	n/a	n/a	-0.1	0	n/a	n/a	n/a
810.4736	1	10	2591.3	2591.3	1	0	1	0	0	0	0	0	0.5	0.5	10
813.0734	1	20	n/a	n/a	1	n/a	n/a	n/a	n/a	n/a	0	0	n/a	n/a	n/a
814.1104	1	80	n/a	n/a	1	n/a	n/a	n/a	n/a	n/a	0	0	n/a	n/a	n/a
814.2104	1	80	n/a	n/a	1	n/a	n/a	n/a	n/a	n/a	0	0	n/a	n/a	n/a
814.4234	1	30	n/a	n/a	1	n/a	n/a	n/a	n/a	n/a	0.1	0	n/a	n/a	n/a
825.456	1	10	2184.5	2184.5	1	0	1	0	0.4	0.20656	-0.1	0	0.9	0.97104	11
827.6558	1	20	n/a	n/a	1	n/a	n/a	n/a	n/a	n/a	-0.1	0	n/a	n/a	n/a
828.932	1	80	n/a	n/a	1	n/a	n/a	n/a	n/a	n/a	0.2	0	n/a	n/a	n/a
829.032	1	80	n/a	n/a	1	n/a	n/a	n/a	n/a	n/a	0	0	n/a	n/a	n/a
829.2392	1	30	n/a	n/a	1	n/a	n/a	n/a	n/a	n/a	0	0	n/a	n/a	n/a
831.2556	1	40	n/a	n/a	1	n/a	n/a	n/a	n/a	n/a	-0.1	0	n/a	n/a	n/a
833.2722	1	10	1200.2	1200.2	1	0	1	0	0.5	0.068764	0	0	0.1	0.025	12
834.4888	1	20	n/a	n/a	1	n/a	n/a	n/a	n/a	n/a	0	0	n/a	n/a	n/a
835.9168	1	80	n/a	n/a	1	n/a	n/a	n/a	n/a	n/a	0	0	n/a	n/a	n/a
836.0168	1	80	n/a	n/a	1	n/a	n/a	n/a	n/a	n/a	0	0	n/a	n/a	n/a
836.222	1	30	n/a	n/a	1	n/a	n/a	n/a	n/a	n/a	0	0	n/a	n/a	n/a
838.2386	1	40	n/a	n/a	1	n/a	n/a	n/a	n/a	n/a	0	0	n/a	n/a	n/a
840.2552	1	10	2649	2649	1	0	1	0	0.5	0.24145	0.1	0	0.7	0.64145	13
842.9216	1	20	n/a	n/a	1	n/a	n/a	n/a	n/a	n/a	-0.1	0	n/a	n/a	n/a
844.0516	1	80	n/a	n/a	1	n/a	n/a	n/a	n/a	n/a	0	0	n/a	n/a	n/a
844.1516	1	80	n/a	n/a	1	n/a	n/a	n/a	n/a	n/a	0	0	n/a	n/a	n/a
844.355	1	30	n/a	n/a	1	n/a	n/a	n/a	n/a	n/a	0.2	0	n/a	n/a	n/a
846.3714	1	40	n/a	n/a	1	n/a	n/a	n/a	n/a	n/a	-0.2	0	n/a	n/a	n/a
848.388	1	10	1252.1	1252.1	1	0	1	0	0.5	0.74776	0.1	0	0.2	0.14776	14
849.6546	1	20	n/a	n/a	1	n/a	n/a	n/a	n/a	n/a	0	0	n/a	n/a	n/a
851.2466	1	80	n/a	n/a	1	n/a	n/a	n/a	n/a	n/a	0	0	n/a	n/a	n/a
851.3466	1	80	n/a	n/a	1	n/a	n/a	n/a	n/a	n/a	0	0	n/a	n/a	n/a
851.5544	1	30	n/a	n/a	1	n/a	n/a	n/a	n/a	n/a	-0.1	0	n/a	n/a	n/a
853.571	1	40	n/a	n/a	1	n/a	n/a	n/a	n/a	n/a	0	0	n/a	n/a	n/a
855.5876	1	10	3220.3	3220.3	1	0	1	0	0.4	0.76591	0.1	0	0.5	0.67727	15
858.8208	1	20	n/a	n/a	1	n/a	n/a	n/a	n/a	n/a	0.1	0	n/a	n/a	n/a
860.2278	1	80	n/a	n/a	1	n/a	n/a	n/a	n/a	n/a	-0.1	0	n/a	n/a	n/a
860.3278	1	80	n/a	n/a	1	n/a	n/a	n/a	n/a	n/a	0	0	n/a	n/a	n/a
860.5372	1	30	n/a	n/a	1	n/a	n/a	n/a	n/a	n/a	-0.1	0	n/a	n/a	n/a
862.5538	1	40	n/a	n/a	1	n/a	n/a	n/a	n/a	n/a	0.1	0	n/a	n/a	n/a
864.5704	1	10	1949.3	1949.3	1	0	1	0	0.4	0.37037	-1.1642e-10	0	0.7	0.74691	16
866.537	1	20	n/a	n/a	1	n/a	n/a	n/a	n/a	n/a	0.1	0	n/a	n/a	n/a
867.825	1	80	n/a	n/a	1	n/a	n/a	n/a	n/a	n/a	-0.1	0	n/a	n/a	n/a
867.925	1	80	n/a	n/a	1	n/a	n/a	n/a	n/a	n/a	0	0	n/a	n/a	n/a
868.1368	1	30	n/a	n/a	1	n/a	n/a	n/a	n/a	n/a	1.1642e-10	0	n/a	n/a	n/a
870.1534	1	40	n/a	n/a	1	n/a	n/a	n/a	n/a	n/a	-1.1642e-10	0	n/a	n/a	n/a
872.17	1	10	3053.6	3053.6	1	0	1	0	0.6	0.84834	0.1	0	0.2	0.27251	17
875.2364	1	20	n/a	n/a	1	n/a	n/a	n/a	n/a	n/a	-0.1	0	n/a	n/a	n/a
877.0694	1	80	n/a	n/a	1	n/a	n/a	n/a	n/a	n/a	0	0	n/a	n/a	n/a
877.1694	1	80	n/a	n/a	1	n/a	n/a	n/a	n/a	n/a	0	0	n/a	n/a	n/a
877.3862	1	30	n/a	n/a	1	n/a	n/a	n/a	n/a	n/a	-0.1	0	n/a	n/a	n/a
879.4028	1	40	n/a	n/a	1	n/a	n/a	n/a	n/a	n/a	0.1	0	n/a	n/a	n/a
881.4194	1	10	2459.9	2459.9	1	0	1	0	0.5	0.58325	-1.1642e-10	0	0.5	0.58325	18
883.8858	1	20	n/a	n/a	1	n/a	n/a	n/a	n/a	n/a	-0.1	0	n/a	n/a	n/a
885.76	1	80	n/a	n/a	1	n/a	n/a	n/a	n/a	n/a	0.2	0	n/a	n/a	n/a
885.86	1	80	n/a	n/a	1	n/a	n/a	n/a	n/a	n/a	0	0	n/a	n/a	n/a
886.069	1	30	n/a	n/a	1	n/a	n/a	n/a	n/a	n/a	-0.2	0	n/a	n/a	n/a
888.0856	1	40	n/a	n/a	1	n/a	n/a	n/a	n/a	n/a	0.1	0	n/a	n/a	n/a
890.1022	1	10	1296.9	1296.9	1	0	1	0	0.5	0.38	0	0	0.6	0.58	19
891.4022	1	20	n/a	n/a	1	n/a	n/a	n/a	n/a	n/a	0.1	0	n/a	n/a	n/a
892.5752	1	80	n/a	n/a	1	n/a	n/a	n/a	n/a	n/a	0	0	n/a	n/a	n/a
892.6752	1	80	n/a	n/a	1	n/a	n/a	n/a	n/a	n/a	0	0	n/a	n/a	n/a
892.8854	1	31	n/a	n/a	1	n/a	n/a	n/a	n/a	n/a	1.1642e-10	0	n/a	n/a	n/a
894.9018	1	40	n/a	n/a	1	n/a	n/a	n/a	n/a	n/a	-0.2	0	n/a	n/a	n/a
896.9184	1	10	976.5	976.5	1	0	1	0	0.5	0.84773	0.1	0	0.5	0.84773	20
897.9018	1	20	n/a	n/a	1	n/a	n/a	n/a	n/a	n/a	0.1	0	n/a	n/a	n/a
899.6928	1	80	n/a	n/a	1	n/a	n/a	n/a	n/a	n/a	0	0	n/a	n/a	n/a
899.7928	1	80	n/a	n/a	1	n/a	n/a	n/a	n/a	n/a	0	0	n/a	n/a	n/a
900.0016	1	31	n/a	n/a	1	n/a	n/a	n/a	n/a	n/a	-0.1	0	n/a	n/a	n/a
902.0182	1	40	n/a	n/a	1	n/a	n/a	n/a	n/a	n/a	0.1	0	n/a	n/a	n/a
913.0508	1	10	1099.7	1099.7	1	0	1	0	0	0	-0.1	0	0.9	0.9	21
914.1674	1	20	n/a	n/a	1	n/a	n/a	n/a	n/a	n/a	-1.1642e-10	0	n/a	n/a	n/a
915.8444	1	80	n/a	n/a	1	n/a	n/a	n/a	n/a	n/a	0	0	n/a	n/a	n/a
915.9444	1	80	n/a	n/a	1	n/a	n/a	n/a	n/a	n/a	0	0	n/a	n/a	n/a
916.1506	1	31	n/a	n/a	1	n/a	n/a	n/a	n/a	n/a	0	0	n/a	n/a	n/a
918.1672	1	10	735.3	735.3	1	0	1	0	0	0	0.1	0	0.8	0.8	22
918.9172	1	20	n/a	n/a	1	n/a	n/a	n/a	n/a	n/a	0	0	n/a	n/a	n/a
920.6502	1	80	n/a	n/a	1	n/a	n/a	n/a	n/a	n/a	0	0	n/a	n/a	n/a
920.7502	1	80	n/a	n/a	1	n/a	n/a	n/a	n/a	n/a	0	0	n/a	n/a	n/a
920.967	1	30	n/a	n/a	1	n/a	n/a	n/a	n/a	n/a	-0.1	0	n/a	n/a	n/a
922.9836	1	10	1822.8	1822.8	1	0	1	0	0	0	0.1	0	0.7	0.7	23
924.8168	1	20	n/a	n/a	1	n/a	n/a	n/a	n/a	n/a	1.1642e-10	0	n/a	n/a	n/a
926.0058	1	80	n/a	n/a	1	n/a	n/a	n/a	n/a	n/a	-0.1	0	n/a	n/a	n/a
926.1058	1	80	n/a	n/a	1	n/a	n/a	n/a	n/a	n/a	0	0	n/a	n/a	n/a
926.3166	1	30	n/a	n/a	1	n/a	n/a	n/a	n/a	n/a	-1.1642e-10	0	n/a	n/a	n/a
928.3332	1	10	1128.9	1128.9	1	0	1	0	0	0	0	0	0.9	0.9	24
929.4666	1	20	n/a	n/a	1	n/a	n/a	n/a	n/a	n/a	0.2	0	n/a	n/a	n/a
930.5016	1	80	n/a	n/a	1	n/a	n/a	n/a	n/a	n/a	-0.1	0	n/a	n/a	n/a
930.6016	1	80	n/a	n/a	1	n/a	n/a	n/a	n/a	n/a	0	0	n/a	n/a	n/a
930.8164	1	30	n/a	n/a	1	n/a	n/a	n/a	n/a	n/a	-0.1	0	n/a	n/a	n/a
932.833	1	10	1653.1	1653.1	1	0	1	0	0	0	0.1	0	0.2	0.2	25
934.4996	1	20	n/a	n/a	1	n/a	n/a	n/a	n/a	n/a	0	0	n/a	n/a	n/a
935.5956	1	80	n/a	n/a	1	n/a	n/a	n/a	n/a	n/a	0	0	n/a	n/a	n/a
935.6956	1	80	n/a	n/a	1	n/a	n/a	n/a	n/a	n/a	0	0	n/a	n/a	n/a
935.8994	1	31	n/a	n/a	1	n/a	n/a	n/a	n/a	n/a	-0.1	0	n/a	n/a	n/a
937.916	1	10	1162	1162	1	0	1	0	0	0	0.1	0	0.7	0.7	26
939.0826	1	20	n/a	n/a	1	n/a	n/a	n/a	n/a	n/a	0	0	n/a	n/a	n/a
940.8326	1	80	n/a	n/a	1	n/a	n/a	n/a	n/a	n/a	0	0	n/a	n/a	n/a
940.9326	1	80	n/a	n/a	1	n/a	n/a	n/a	n/a	n/a	0	0	n/a	n/a	n/a
941.1492	1	31	n/a	n/a	1	n/a	n/a	n/a	n/a	n/a	0	0	n/a	n/a	n/a
943.1656	1	10	2392.2	2392.2	1	0	1	0	0	0	-0.1	0	0.5	0.5	27
945.5656	1	20	n/a	n/a	1	n/a	n/a	n/a	n/a	n/a	0.1	0	n/a	n/a	n/a
947.0306	1	80	n/a	n/a	1	n/a	n/a	n/a	n/a	n/a	0	0	n/a	n/a	n/a
947.1306	1	80	n/a	n/a	1	n/a	n/a	n/a	n/a	n/a	0	0	n/a	n/a	n/a
947.3322	1	30	n/a	n/a	1	n/a	n/a	n/a	n/a	n/a	0.1	0	n/a	n/a	n/a
949.3486	1	10	2641	2641	1	0	1	0	0	0	-0.2	0	0.9	0.9	28
951.9986	1	20	n/a	n/a	1	n/a	n/a	n/a	n/a	n/a	0.2	0	n/a	n/a	n/a
953.4286	1	80	n/a	n/a	1	n/a	n/a	n/a	n/a	n/a	0	0	n/a	n/a	n/a
953.5286	1	80	n/a	n/a	1	n/a	n/a	n/a	n/a	n/a	0	0	n/a	n/a	n/a
953.7318	1	31	n/a	n/a	1	n/a	n/a	n/a	n/a	n/a	1.1642e-10	0	n/a	n/a	n/a
955.7482	1	10	737.3	737.3	1	0	1	0	0	0	-0.2	0	0.4	0.4	29
956.4982	1	20	n/a	n/a	1	n/a	n/a	n/a	n/a	n/a	0.1	0	n/a	n/a	n/a
957.5922	1	80	n/a	n/a	1	n/a	n/a	n/a	n/a	n/a	-0.1	0	n/a	n/a	n/a
957.6922	1	80	n/a	n/a	1	n/a	n/a	n/a	n/a	n/a	0	0	n/a	n/a	n/a
957.8982	1	30	n/a	n/a	1	n/a	n/a	n/a	n/a	n/a	0.2	0	n/a	n/a	n/a
959.9148	1	10	1306.8	1306.8	1	0	1	0	0	0	1.1642e-10	0	0.7	0.7	30
961.2312	1	20	n/a	n/a	1	n/a	n/a	n/a	n/a	n/a	-0.2	0	n/a	n/a	n/a
963.0594	1	80	n/a	n/a	1	n/a	n/a	n/a	n/a	n/a	0.2	0	n/a	n/a	n/a
963.1594	1	80	n/a	n/a	1	n/a	n/a	n/a	n/a	n/a	0	0	n/a	n/a	n/a
963.3644	1	30	n/a	n/a	1	n/a	n/a	n/a	n/a	n/a	-0.2	0	n/a	n/a	n/a
974.3972	1	10	2392	2392	1	0	1	0	0.7	0.26394	0.2	0	0.6	0.28252	31
976.797	1	20	n/a	n/a	1	n/a	n/a	n/a	n/a	n/a	-0.1	0	n/a	n/a	n/a
978.059	1	80	n/a	n/a	1	n/a	n/a	n/a	n/a	n/a	0	0	n/a	n/a	n/a
978.159	1	80	n/a	n/a	1	n/a	n/a	n/a	n/a	n/a	0	0	n/a	n/a	n/a
978.3636	1	30	n/a	n/a	1	n/a	n/a	n/a	n/a	n/a	0	0	n/a	n/a	n/a
980.3802	1	40	n/a	n/a	1	n/a	n/a	n/a	n/a	n/a	0.1	0	n/a	n/a	n/a
982.3968	1	10	1096.2	1096.2	1	0	1	0	0.8	0.51016	1.1642e-10	0	0.1	0.0625	32
983.4966	1	20	n/a	n/a	1	n/a	n/a	n/a	n/a	n/a	-0.1	0	n/a	n/a	n/a
984.7916	1	80	n/a	n/a	1	n/a	n/a	n/a	n/a	n/a	0	0	n/a	n/a	n/a
984.8916	1	80	n/a	n/a	1	n/a	n/a	n/a	n/a	n/a	0	0	n/a	n/a	n/a
985.0966	1	30	n/a	n/a	1	n/a	n/a	n/a	n/a	n/a	0.1	0	n/a	n/a	n/a
987.113	1	40	n/a	n/a	1	n/a	n/a	n/a	n/a	n/a	-0.1	0	n/a	n/a	n/a
989.1296	1	10	1899.1	1899.1	1	0	1	0	0.6	0.40092	0	0	0.7	0.85138	33
991.0462	1	20	n/a	n/a	1	n/a	n/a	n/a	n/a	n/a	0.1	0	n/a	n/a	n/a
992.8562	1	80	n/a	n/a	1	n/a	n/a	n/a	n/a	n/a	-0.1	0	n/a	n/a	n/a
992.9562	1	80	n/a	n/a	1	n/a	n/a	n/a	n/a	n/a	0	0	n/a	n/a	n/a
993.1628	1	30	n/a	n/a	1	n/a	n/a	n/a	n/a	n/a	0.1	0	n/a	n/a	n/a
995.1792	1	40	n/a	n/a	1	n/a	n/a	n/a	n/a	n/a	-0.1	0	n/a	n/a	n/a
997.1958	1	10	1176.8	1176.8	1	0	1	0	0.8	0.97742	1.1642e-10	0	0.1	0.40966	34
998.379	1	20	n/a	n/a	1	n/a	n/a	n/a	n/a	n/a	-1.1642e-10	0	n/a	n/a	n/a
999.679	1	80	n/a	n/a	1	n/a	n/a	n/a	n/a	n/a	0	0	n/a	n/a	n/a
999.779	1	80	n/a	n/a	1	n/a	n/a	n/a	n/a	n/a	0	0	n/a	n/a	n/a
999.9956	1	30	n/a	n/a	1	n/a	n/a	n/a	n/a	n/a	0	0	n/a	n/a	n/a
1002.0122	1	40	n/a	n/a	1	n/a	n/a	n/a	n/a	n/a	0.1	0	n/a	n/a	n/a
1004.0288	1	10	1335.7	1335.7	1	0	1	0	0.4	0.84792	1.1642e-10	0	0.4	0.56528	35
1005.3786	1	20	n/a	n/a	1	n/a	n/a	n/a	n/a	n/a	-0.1	0	n/a	n/a	n/a
1006.4596	1	80	n/a	n/a	1	n/a	n/a	n/a	n/a	n/a	0	0	n/a	n/a	n/a
1006.5596	1	80	n/a	n/a	1	n/a	n/a	n/a	n/a	n/a	0	0	n/a	n/a	n/a
1006.762	1	31	n/a	n/a	1	n/a	n/a	n/a	n/a	n/a	0.2	0	n/a	n/a	n/a
1008.7784	1	40	n/a	n/a	1	n/a	n/a	n/a	n/a	n/a	-0.2	0	n/a	n/a	n/a
1010.795	1	10	2185.3	2185.3	1	0	1	0	0.7	0.98891	0.1	0	0.1	0.30747	36
1012.9948	1	20	n/a	n/a	1	n/a	n/a	n/a	n/a	n/a	-0.1	0	n/a	n/a	n/a
1014.587	1	80	n/a	n/a	1	n/a	n/a	n/a	n/a	n/a	0.2	0	n/a	n/a	n/a
1014.6868	1	80	n/a	n/a	1	n/a	n/a	n/a	n/a	n/a	-0.2	0	n/a	n/a	n/a
1014.8948	1	31	n/a	n/a	1	n/a	n/a	n/a	n/a	n/a	0.1	0	n/a	n/a	n/a
1016.9114	1	40	n/a	n/a	1	n/a	n/a	n/a	n/a	n/a	0.1	0	n/a	n/a	n/a
1018.9278	1	10	1956.2	1956.2	1	0	1	0	0.4	0.93119	-0.2	0	0.1	0.1208	37
1020.8944	1	20	n/a	n/a	1	n/a	n/a	n/a	n/a	n/a	0.1	0	n/a	n/a	n/a
1022.2054	1	80	n/a	n/a	1	n/a	n/a	n/a	n/a	n/a	0	0	n/a	n/a	n/a
1022.3054	1	80	n/a	n/a	1	n/a	n/a	n/a	n/a	n/a	0	0	n/a	n/a	n/a
1022.511	1	31	n/a	n/a	1	n/a	n/a	n/a	n/a	n/a	0	0	n/a	n/a	n/a
1024.5276	1	40	n/a	n/a	1	n/a	n/a	n/a	n/a	n/a	0.1	0	n/a	n/a	n/a
1026.544	1	10	2915.8	2915.8	1	0	1	0	0.5	0.24391	-0.2	0	0.7	0.64391	38
1029.4772	1	20	n/a	n/a	1	n/a	n/a	n/a	n/a	n/a	0.1	0	n/a	n/a	n/a
1030.5762	1	80	n/a	n/a	1	n/a	n/a	n/a	n/a	n/a	-0.1	0	n/a	n/a	n/a
1030.6762	1	80	n/a	n/a	1	n/a	n/a	n/a	n/a	n/a	0	0	n/a	n/a	n/a
1030.8938	1	30	n/a	n/a	1	n/a	n/a	n/a	n/a	n/a	0.1	0	n/a	n/a	n/a
1032.9104	1	40	n/a	n/a	1	n/a	n/a	n/a	n/a	n/a	0	0	n/a	n/a	n/a
1034.927	1	10	2916.8	2916.8	1	0	1	0	0.6	0.72092	0.1	0	0.5	0.83137	39
1037.86	1	20	n/a	n/a	1	n/a	n/a	n/a	n/a	n/a	-0.2	0	n/a	n/a	n/a
1039.49	1	80	n/a	n/a	1	n/a	n/a	n/a	n/a	n/a	0	0	n/a	n/a	n/a
1039.59	1	80	n/a	n/a	1	n/a	n/a	n/a	n/a	n/a	0	0	n/a	n/a	n/a
1039.7932	1	31	n/a	n/a	1	n/a	n/a	n/a	n/a	n/a	0	0	n/a	n/a	n/a
1041.8098	1	40	n/a	n/a	1	n/a	n/a	n/a	n/a	n/a	0.1	0	n/a	n/a	n/a
1043.8264	1	10	2209.1	2209.1	1	0	1	0	0.6	0.4929	0	0	0.4	0.23935	40
1046.043	1	20	n/a	n/a	1	n/a	n/a	n/a	n/a	n/a	0.1	0	n/a	n/a	n/a
1047.332	1	80	n/a	n/a	1	n/a	n/a	n/a	n/a	n/a	0	0	n/a	n/a	n/a
1047.432	1	80	n/a	n/a	1	n/a	n/a	n/a	n/a	n/a	0	0	n/a	n/a	n/a
1047.6428	1	31	n/a	n/a	1	n/a	n/a	n/a	n/a	n/a	-0.1	0	n/a	n/a	n/a
1049.6594	1	40	n/a	n/a	1	n/a	n/a	n/a	n/a	n/a	0.1	0	n/a	n/a	n/a
1106.456	1	10	2186.1	2186.1	1	0	0	1	0	0	0	0	0.5	0.5	1
1108.6558	1	20	n/a	n/a	1	n/a	n/a	n/a	n/a	n/a	-0.1	0	n/a	n/a	n/a
1110.2538	1	80	n/a	n/a	1	n/a	n/a	n/a	n/a	n/a	0	0	n/a	n/a	n/a
1110.3538	1	80	n/a	n/a	1	n/a	n/a	n/a	n/a	n/a	0	0	n/a	n/a	n/a
1110.5558	1	30	n/a	n/a	1	n/a	n/a	n/a	n/a	n/a	0.2	0	n/a	n/a	n/a
1112.5724	1	10	1141.7	1141.7	1	0	0	1	0	0	-2.3283e-10	0	0.7	0.7	2
1113.7222	1	20	n/a	n/a	1	n/a	n/a	n/a	n/a	n/a	-0.1	0	n/a	n/a	n/a
1114.7402	1	80	n/a	n/a	1	n/a	n/a	n/a	n/a	n/a	0	0	n/a	n/a	n/a
1114.8402	1	80	n/a	n/a	1	n/a	n/a	n/a	n/a	n/a	0	0	n/a	n/a	n/a
1115.0554	1	30	n/a	n/a	1	n/a	n/a	n/a	n/a	n/a	-0.1	0	n/a	n/a	n/a
1117.072	1	10	1025.9	1025.9	1	0	0	1	0	0	0.1	0	0.2	0.2	3
1118.1052	1	20	n/a	n/a	1	n/a	n/a	n/a	n/a	n/a	-0.1	0	n/a	n/a	n/a
1119.7784	1	80	n/a	n/a	1	n/a	n/a	n/a	n/a	n/a	0.2	0	n/a	n/a	n/a
1119.8784	1	80	n/a	n/a	1	n/a	n/a	n/a	n/a	n/a	0	0	n/a	n/a	n/a
1120.0886	1	31	n/a	n/a	1	n/a	n/a	n/a	n/a	n/a	0	0	n/a	n/a	n/a
1122.105	1	10	1464.7	1464.7	1	0	0	1	0	0	-0.1	0	0.1	0.1	4
1123.5884	1	20	n/a	n/a	1	n/a	n/a	n/a	n/a	n/a	0.1	0	n/a	n/a	n/a
1125.3674	1	80	n/a	n/a	1	n/a	n/a	n/a	n/a	n/a	0	0	n/a	n/a	n/a
1125.4674	1	80	n/a	n/a	1	n/a	n/a	n/a	n/a	n/a	0	0	n/a	n/a	n/a
1125.6716	1	31	n/a	n/a	1	n/a	n/a	n/a	n/a	n/a	0	0	n/a	n/a	n/a
1127.688	1	10	921.6	921.6	1	0	0	1	0	0	-0.1	0	0.1	0.1	5
1128.6214	1	20	n/a	n/a	1	n/a	n/a	n/a	n/a	n/a	0.1	0	n/a	n/a	n/a
1129.9124	1	80	n/a	n/a	1	n/a	n/a	n/a	n/a	n/a	0	0	n/a	n/a	n/a
1130.0124	1	80	n/a	n/a	1	n/a	n/a	n/a	n/a	n/a	0	0	n/a	n/a	n/a
1130.2212	1	30	n/a	n/a	1	n/a	n/a	n/a	n/a	n/a	-0.1	0	n/a	n/a	n/a
1132.2378	1	10	1731.7	1731.7	1	0	0	1	0	0	2.3283e-10	0	0.3	0.3	6
1133.9876	1	20	n/a	n/a	1	n/a	n/a	n/a	n/a	n/a	0	0	n/a	n/a	n/a
1135.0638	1	80	n/a	n/a	1	n/a	n/a	n/a	n/a	n/a	0.1	0	n/a	n/a	n/a
1135.1638	1	80	n/a	n/a	1	n/a	n/a	n/a	n/a	n/a	0	0	n/a	n/a	n/a
1135.371	1	30	n/a	n/a	1	n/a	n/a	n/a	n/a	n/a	0	0	n/a	n/a	n/a
1137.3874	1	10	982	982	1	0	0	1	0	0	-0.1	0	0.9	0.9	7
1138.3874	1	20	n/a	n/a	1	n/a	n/a	n/a	n/a	n/a	0	0	n/a	n/a	n/a
1140.2274	1	80	n/a	n/a	1	n/a	n/a	n/a	n/a	n/a	0	0	n/a	n/a	n/a
1140.3274	1	80	n/a	n/a	1	n/a	n/a	n/a	n/a	n/a	0	0	n/a	n/a	n/a
1140.5372	1	31	n/a	n/a	1	n/a	n/a	n/a	n/a	n/a	0	0	n/a	n/a	n/a
1142.5538	1	10	2967.4	2967.4	1	0	0	1	0	0	2.3283e-10	0	0.5	0.5	8
1145.537	1	20	n/a	n/a	1	n/a	n/a	n/a	n/a	n/a	0.1	0	n/a	n/a	n/a
1146.843	1	80	n/a	n/a	1	n/a	n/a	n/a	n/a	n/a	-0.1	0	n/a	n/a	n/a
1146.943	1	80	n/a	n/a	1	n/a	n/a	n/a	n/a	n/a	0	0	n/a	n/a	n/a
1147.1536	1	30	n/a	n/a	1	n/a	n/a	n/a	n/a	n/a	0.1	0	n/a	n/a	n/a
1149.1702	1	10	2399	2399	1	0	0	1	0	0	0	0	0.7	0.7	9
1151.5866	1	20	n/a	n/a	1	n/a	n/a	n/a	n/a	n/a	-0.1	0	n/a	n/a	n/a
1152.9396	1	80	n/a	n/a	1	n/a	n/a	n/a	n/a	n/a	0	0	n/a	n/a	n/a
1153.0396	1	80	n/a	n/a	1	n/a	n/a	n/a	n/a	n/a	0	0	n/a	n/a	n/a
1153.2532	1	31	n/a	n/a	1	n/a	n/a	n/a	n/a	n/a	0.1	0	n/a	n/a	n/a
1155.2698	1	10	1435.2	1435.2	1	0	0	1	0	0	0	0	0.7	0.7	10
1156.7196	1	20	n/a	n/a	1	n/a	n/a	n/a	n/a	n/a	-0.1	0	n/a	n/a	n/a
1158.1906	1	80	n/a	n/a	1	n/a	n/a	n/a	n/a	n/a	0	0	n/a	n/a	n/a
1158.2906	1	80	n/a	n/a	1	n/a	n/a	n/a	n/a	n/a	0	0	n/a	n/a	n/a
1158.503	1	31	n/a	n/a	1	n/a	n/a	n/a	n/a	n/a	0.2	0	n/a	n/a	n/a
1169.5356	1	10	2801	2801	1	0	0	1	0.8	0.92314	-0.1	0	0.7	0.9375	11
1172.352	1	20	n/a	n/a	1	n/a	n/a	n/a	n/a	n/a	-0.1	0	n/a	n/a	n/a
1174.15	1	80	n/a	n/a	1	n/a	n/a	n/a	n/a	n/a	0	0	n/a	n/a	n/a
1174.25	1	80	n/a	n/a	1	n/a	n/a	n/a	n/a	n/a	0	0	n/a	n/a	n/a
1174.452	1	31	n/a	n/a	1	n/a	n/a	n/a	n/a	n/a	0.1	0	n/a	n/a	n/a
1176.4686	1	40	n/a	n/a	1	n/a	n/a	n/a	n/a	n/a	0.1	0	n/a	n/a	n/a
1178.485	1	10	955.5	955.5	1	0	0	1	0.5	0.96292	-0.1	0	0.5	0.96292	12
1179.4516	1	20	n/a	n/a	1	n/a	n/a	n/a	n/a	n/a	0	0	n/a	n/a	n/a
1181.1386	1	80	n/a	n/a	1	n/a	n/a	n/a	n/a	n/a	-0.1	0	n/a	n/a	n/a
1181.2386	1	80	n/a	n/a	1	n/a	n/a	n/a	n/a	n/a	0	0	n/a	n/a	n/a
1181.4516	1	31	n/a	n/a	1	n/a	n/a	n/a	n/a	n/a	0.2	0	n/a	n/a	n/a
1183.468	1	40	n/a	n/a	1	n/a	n/a	n/a	n/a	n/a	-0.2	0	n/a	n/a	n/a
1185.4846	1	10	3347.6	3347.6	1	0	0	1	0.7	0.75621	0.1	0	0.4	0.76449	13
1188.8344	1	20	n/a	n/a	1	n/a	n/a	n/a	n/a	n/a	1.2	0	n/a	n/a	n/a
1190.4202	1	80	n/a	n/a	1	n/a	n/a	n/a	n/a	n/a	-1.2	0	n/a	n/a	n/a
1190.5202	1	80	n/a	n/a	1	n/a	n/a	n/a	n/a	n/a	0	0	n/a	n/a	n/a
1190.7344	1	31	n/a	n/a	1	n/a	n/a	n/a	n/a	n/a	0.1	0	n/a	n/a	n/a
1192.7508	1	40	n/a	n/a	1	n/a	n/a	n/a	n/a	n/a	-0.1	0	n/a	n/a	n/a
1194.7674	1	10	912.7	912.7	1	0	0	1	0.4	0.54439	0	0	0.3	0.19626	14
1195.684	1	20	n/a	n/a	1	n/a	n/a	n/a	n/a	n/a	0	0	n/a	n/a	n/a
1197.469	1	80	n/a	n/a	1	n/a	n/a	n/a	n/a	n/a	0	0	n/a	n/a	n/a
1197.569	1	80	n/a	n/a	1	n/a	n/a	n/a	n/a	n/a	0	0	n/a	n/a	n/a
1197.7838	1	31	n/a	n/a	1	n/a	n/a	n/a	n/a	n/a	-0.1	0	n/a	n/a	n/a
1199.8004	1	40	n/a	n/a	1	n/a	n/a	n/a	n/a	n/a	0.1	0	n/a	n/a	n/a
1201.817	1	10	2150.9	2150.9	1	0	0	1	0.6	0.92407	0	0	0.2	0.38611	15
1203.9836	1	20	n/a	n/a	1	n/a	n/a	n/a	n/a	n/a	0.1	0	n/a	n/a	n/a
1205.7596	1	80	n/a	n/a	1	n/a	n/a	n/a	n/a	n/a	0	0	n/a	n/a	n/a
1205.8596	1	80	n/a	n/a	1	n/a	n/a	n/a	n/a	n/a	0	0	n/a	n/a	n/a
1206.0668	1	31	n/a	n/a	1	n/a	n/a	n/a	n/a	n/a	0	0	n/a	n/a	n/a
1208.0832	1	40	n/a	n/a	1	n/a	n/a	n/a	n/a	n/a	-0.1	0	n/a	n/a	n/a
1210.0998	1	10	1147.9	1147.9	1	0	0	1	0.7	0.27086	0	0	0.6	0.29868	16
1211.2664	1	20	n/a	n/a	1	n/a	n/a	n/a	n/a	n/a	17.7	0	n/a	n/a	n/a
1212.8118	1	80	n/a	n/a	1	n/a	n/a	n/a	n/a	n/a	-17.6	0	n/a	n/a	n/a
1212.9118	1	80	n/a	n/a	1	n/a	n/a	n/a	n/a	n/a	0	0	n/a	n/a	n/a
1213.1164	1	30	n/a	n/a	1	n/a	n/a	n/a	n/a	n/a	-2.3283e-10	0	n/a	n/a	n/a
1215.1328	1	40	n/a	n/a	1	n/a	n/a	n/a	n/a	n/a	-0.1	0	n/a	n/a	n/a
1217.1494	1	10	978.1	978.1	1	0	0	1	0.6	0.26255	0	0	0.1	0.03125	17
1218.1326	1	20	n/a	n/a	1	n/a	n/a	n/a	n/a	n/a	0	0	n/a	n/a	n/a
1220.1198	1	80	n/a	n/a	1	n/a	n/a	n/a	n/a	n/a	0.1	0	n/a	n/a	n/a
1220.2198	1	80	n/a	n/a	1	n/a	n/a	n/a	n/a	n/a	0	0	n/a	n/a	n/a
1220.4326	1	31	n/a	n/a	1	n/a	n/a	n/a	n/a	n/a	0	0	n/a	n/a	n/a
1222.4492	1	40	n/a	n/a	1	n/a	n/a	n/a	n/a	n/a	0.1	0	n/a	n/a	n/a
1224.4656	1	10	925.8	925.8	1	0	0	1	0.5	0.57449	-0.2	0	0.3	0.17449	18
1225.399	1	20	n/a	n/a	1	n/a	n/a	n/a	n/a	n/a	0.1	0	n/a	n/a	n/a
1226.673	1	80	n/a	n/a	1	n/a	n/a	n/a	n/a	n/a	0	0	n/a	n/a	n/a
1226.773	1	80	n/a	n/a	1	n/a	n/a	n/a	n/a	n/a	0	0	n/a	n/a	n/a
1226.9822	1	31	n/a	n/a	1	n/a	n/a	n/a	n/a	n/a	-2.3283e-10	0	n/a	n/a	n/a
1228.9988	1	40	n/a	n/a	1	n/a	n/a	n/a	n/a	n/a	0.1	0	n/a	n/a	n/a
1231.0152	1	10	1064	1064	1	0	0	1	0.8	0.70779	-0.2	0	0.1	0.0625	19
1232.0818	1	20	n/a	n/a	1	n/a	n/a	n/a	n/a	n/a	0	0	n/a	n/a	n/a
1234.0808	1	80	n/a	n/a	1	n/a	n/a	n/a	n/a	n/a	0	0	n/a	n/a	n/a
1234.1808	1	80	n/a	n/a	1	n/a	n/a	n/a	n/a	n/a	0	0	n/a	n/a	n/a
1234.3984	1	31	n/a	n/a	1	n/a	n/a	n/a	n/a	n/a	0.1	0	n/a	n/a	n/a
1236.415	1	40	n/a	n/a	1	n/a	n/a	n/a	n/a	n/a	2.3283e-10	0	n/a	n/a	n/a
1238.4316	1	10	1151.6	1151.6	1	0	0	1	0.4	0.82545	0.1	0	0.4	0.5503	20
1239.598	1	20	n/a	n/a	1	n/a	n/a	n/a	n/a	n/a	-0.2	0	n/a	n/a	n/a
1241.2142	1	80	n/a	n/a	1	n/a	n/a	n/a	n/a	n/a	0.2	0	n/a	n/a	n/a
1241.314	1	80	n/a	n/a	1	n/a	n/a	n/a	n/a	n/a	-0.2	0	n/a	n/a	n/a
1241.5312	1	30	n/a	n/a	1	n/a	n/a	n/a	n/a	n/a	0	0	n/a	n/a	n/a
1243.5478	1	40	n/a	n/a	1	n/a	n/a	n/a	n/a	n/a	0	0	n/a	n/a	n/a
1254.5806	1	10	954.2	954.2	1	0	0	1	0	0	0.2	0	0.1	0.1	21
1255.5472	1	20	n/a	n/a	1	n/a	n/a	n/a	n/a	n/a	-2.3283e-10	0	n/a	n/a	n/a
1257.1582	1	80	n/a	n/a	1	n/a	n/a	n/a	n/a	n/a	-0.1	0	n/a	n/a	n/a
1257.2582	1	80	n/a	n/a	1	n/a	n/a	n/a	n/a	n/a	0	0	n/a	n/a	n/a
1257.4636	1	31	n/a	n/a	1	n/a	n/a	n/a	n/a	n/a	-0.1	0	n/a	n/a	n/a
1259.4802	1	10	1094.4	1094.4	1	0	0	1	0	0	0.1	0	0.2	0.2	22
1260.5802	1	20	n/a	n/a	1	n/a	n/a	n/a	n/a	n/a	0	0	n/a	n/a	n/a
1262.4372	1	80	n/a	n/a	1	n/a	n/a	n/a	n/a	n/a	0	0	n/a	n/a	n/a
1262.5372	1	80	n/a	n/a	1	n/a	n/a	n/a	n/a	n/a	0	0	n/a	n/a	n/a
1262.7468	1	30	n/a	n/a	1	n/a	n/a	n/a	n/a	n/a	0.1	0	n/a	n/a	n/a
1264.7632	1	10	403.3	403.3	1	0	0	1	0	0	-0.1	0	0.3	0.3	23
1265.1798	1	20	n/a	n/a	1	n/a	n/a	n/a	n/a	n/a	-0.1	0	n/a	n/a	n/a
1266.49	1	80	n/a	n/a	1	n/a	n/a	n/a	n/a	n/a	0.2	0	n/a	n/a	n/a
1266.59	1	80	n/a	n/a	1	n/a	n/a	n/a	n/a	n/a	0	0	n/a	n/a	n/a
1266.7964	1	30	n/a	n/a	1	n/a	n/a	n/a	n/a	n/a	-0.1	0	n/a	n/a	n/a
1268.813	1	10	961.4	961.4	1	0	0	1	0	0	2.3283e-10	0	0.8	0.8	24
1269.7962	1	20	n/a	n/a	1	n/a	n/a	n/a	n/a	n/a	20.5	0	n/a	n/a	n/a
1271.6118	1	80	n/a	n/a	1	n/a	n/a	n/a	n/a	n/a	-20.4	0	n/a	n/a	n/a
1271.7118	1	80	n/a	n/a	1	n/a	n/a	n/a	n/a	n/a	0	0	n/a	n/a	n/a
1271.9294	1	31	n/a	n/a	1	n/a	n/a	n/a	n/a	n/a	-0.2	0	n/a	n/a	n/a
1273.946	1	10	436.3	436.3	1	0	0	1	0	0	0.1	0	0.8	0.8	25
1274.396	1	20	n/a	n/a	1	n/a	n/a	n/a	n/a	n/a	0	0	n/a	n/a	n/a
1276.37	1	80	n/a	n/a	1	n/a	n/a	n/a	n/a	n/a	0	0	n/a	n/a	n/a
1276.47	1	80	n/a	n/a	1	n/a	n/a	n/a	n/a	n/a	0	0	n/a	n/a	n/a
1276.6792	1	30	n/a	n/a	1	n/a	n/a	n/a	n/a	n/a	-2.3283e-10	0	n/a	n/a	n/a
1278.6958	1	10	838.4	838.4	1	0	0	1	0	0	0.1	0	0.1	0.1	26
1279.5458	1	20	n/a	n/a	1	n/a	n/a	n/a	n/a	n/a	0	0	n/a	n/a	n/a
1280.6178	1	80	n/a	n/a	1	n/a	n/a	n/a	n/a	n/a	0	0	n/a	n/a	n/a
1280.7178	1	80	n/a	n/a	1	n/a	n/a	n/a	n/a	n/a	0	0	n/a	n/a	n/a
1280.929	1	31	n/a	n/a	1	n/a	n/a	n/a	n/a	n/a	0	0	n/a	n/a	n/a
1282.9456	1	10	460.5	460.5	1	0	0	1	0	0	2.3283e-10	0	0.1	0.1	27
1283.4122	1	20	n/a	n/a	1	n/a	n/a	n/a	n/a	n/a	-2.3283e-10	0	n/a	n/a	n/a
1285.1312	1	80	n/a	n/a	1	n/a	n/a	n/a	n/a	n/a	0	0	n/a	n/a	n/a
1285.2312	1	80	n/a	n/a	1	n/a	n/a	n/a	n/a	n/a	0	0	n/a	n/a	n/a
1285.4454	1	30	n/a	n/a	1	n/a	n/a	n/a	n/a	n/a	0	0	n/a	n/a	n/a
1287.462	1	10	1480	1480	1	0	0	1	0	0	0	0	0.3	0.3	28
1288.9452	1	20	n/a	n/a	1	n/a	n/a	n/a	n/a	n/a	0	0	n/a	n/a	n/a
1290.7552	1	80	n/a	n/a	1	n/a	n/a	n/a	n/a	n/a	0	0	n/a	n/a	n/a
1290.8552	1	80	n/a	n/a	1	n/a	n/a	n/a	n/a	n/a	0	0	n/a	n/a	n/a
1291.0616	1	31	n/a	n/a	1	n/a	n/a	n/a	n/a	n/a	-0.1	0	n/a	n/a	n/a
1293.0782	1	10	2647.5	2647.5	1	0	0	1	0	0	-2.3283e-10	0	0.8	0.8	29
1295.7448	1	20	n/a	n/a	1	n/a	n/a	n/a	n/a	n/a	18	0	n/a	n/a	n/a
1297.4498	1	80	n/a	n/a	1	n/a	n/a	n/a	n/a	n/a	-18	0	n/a	n/a	n/a
1297.5498	1	80	n/a	n/a	1	n/a	n/a	n/a	n/a	n/a	0	0	n/a	n/a	n/a
1297.7614	1	31	n/a	n/a	1	n/a	n/a	n/a	n/a	n/a	0.2	0	n/a	n/a	n/a
1299.7778	1	10	1147.8	1147.8	1	0	0	1	0	0	-0.2	0	0.4	0.4	30
1300.9444	1	20	n/a	n/a	1	n/a	n/a	n/a	n/a	n/a	17.8	0	n/a	n/a	n/a
1302.4436	1	80	n/a	n/a	1	n/a	n/a	n/a	n/a	n/a	-17.8	0	n/a	n/a	n/a
1302.5436	1	80	n/a	n/a	1	n/a	n/a	n/a	n/a	n/a	0	0	n/a	n/a	n/a
1302.761	1	31	n/a	n/a	1	n/a	n/a	n/a	n/a	n/a	0.1	0	n/a	n/a	n/a
1313.7936	1	10	1115.7	1115.7	1	0	0	1	0.7	0.91286	-0.1	0	0.1	0.13	31
1314.927	1	20	n/a	n/a	1	n/a	n/a	n/a	n/a	n/a	0.1	0	n/a	n/a	n/a
1316.62	1	80	n/a	n/a	1	n/a	n/a	n/a	n/a	n/a	0	0	n/a	n/a	n/a
1316.72	1	80	n/a	n/a	1	n/a	n/a	n/a	n/a	n/a	0	0	n/a	n/a	n/a
1316.9268	1	31	n/a	n/a	1	n/a	n/a	n/a	n/a	n/a	0	0	n/a	n/a	n/a
1318.9434	1	40	n/a	n/a	1	n/a	n/a	n/a	n/a	n/a	0	0	n/a	n/a	n/a
1320.96	1	10	765.3	765.3	1	0	0	1	0.4	0.17504	0.1	0	0.5	0.28336	32
1321.7432	1	20	n/a	n/a	1	n/a	n/a	n/a	n/a	n/a	-0.1	0	n/a	n/a	n/a
1323.6232	1	80	n/a	n/a	1	n/a	n/a	n/a	n/a	n/a	0	0	n/a	n/a	n/a
1323.7232	1	80	n/a	n/a	1	n/a	n/a	n/a	n/a	n/a	0	0	n/a	n/a	n/a
1323.9264	1	31	n/a	n/a	1	n/a	n/a	n/a	n/a	n/a	0	0	n/a	n/a	n/a
1325.943	1	40	n/a	n/a	1	n/a	n/a	n/a	n/a	n/a	0	0	n/a	n/a	n/a
1327.9596	1	10	901.5	901.5	1	0	0	1	0.7	0.69479	0.1	0	0.1	0.041667	33
1328.8762	1	20	n/a	n/a	1	n/a	n/a	n/a	n/a	n/a	-2.3283e-10	0	n/a	n/a	n/a
1330.2452	1	80	n/a	n/a	1	n/a	n/a	n/a	n/a	n/a	0	0	n/a	n/a	n/a
1330.3452	1	80	n/a	n/a	1	n/a	n/a	n/a	n/a	n/a	0	0	n/a	n/a	n/a
1330.5594	1	31	n/a	n/a	1	n/a	n/a	n/a	n/a	n/a	0	0	n/a	n/a	n/a
1332.5758	1	40	n/a	n/a	1	n/a	n/a	n/a	n/a	n/a	-0.2	0	n/a	n/a	n/a
1334.5924	1	10	1116.6	1116.6	1	0	0	1	0.8	0.77992	0.2	0	0.7	0.9375	34
1335.7258	1	20	n/a	n/a	1	n/a	n/a	n/a	n/a	n/a	2.3283e-10	0	n/a	n/a	n/a
1337.6678	1	80	n/a	n/a	1	n/a	n/a	n/a	n/a	n/a	0	0	n/a	n/a	n/a
1337.7678	1	80	n/a	n/a	1	n/a	n/a	n/a	n/a	n/a	0	0	n/a	n/a	n/a
1337.9756	1	30	n/a	n/a	1	n/a	n/a	n/a	n/a	n/a	-0.1	0	n/a	n/a	n/a
1339.9922	1	40	n/a	n/a	1	n/a	n/a	n/a	n/a	n/a	0.1	0	n/a	n/a	n/a
1342.0086	1	10	1988.1	1988.1	1	0	0	1	0.8	0.81655	-0.1	0	0.2	0.26619	35
1344.0086	1	20	n/a	n/a	1	n/a	n/a	n/a	n/a	n/a	0.1	0	n/a	n/a	n/a
1345.8826	1	80	n/a	n/a	1	n/a	n/a	n/a	n/a	n/a	0	0	n/a	n/a	n/a
1345.9826	1	80	n/a	n/a	1	n/a	n/a	n/a	n/a	n/a	0	0	n/a	n/a	n/a
1346.1918	1	31	n/a	n/a	1	n/a	n/a	n/a	n/a	n/a	0	0	n/a	n/a	n/a
1348.2084	1	40	n/a	n/a	1	n/a	n/a	n/a	n/a	n/a	-2.3283e-10	0	n/a	n/a	n/a
1350.2248	1	10	811.7	811.7	1	0	0	1	0.8	0.3032	-0.1	0	0.6	0.21278	36
1351.0414	1	20	n/a	n/a	1	n/a	n/a	n/a	n/a	n/a	0	0	n/a	n/a	n/a
1352.1324	1	80	n/a	n/a	1	n/a	n/a	n/a	n/a	n/a	-0.1	0	n/a	n/a	n/a
1352.2324	1	80	n/a	n/a	1	n/a	n/a	n/a	n/a	n/a	0	0	n/a	n/a	n/a
1352.4414	1	31	n/a	n/a	1	n/a	n/a	n/a	n/a	n/a	0.2	0	n/a	n/a	n/a
1354.458	1	40	n/a	n/a	1	n/a	n/a	n/a	n/a	n/a	2.3283e-10	0	n/a	n/a	n/a
1356.4744	1	10	946	946	1	0	0	1	0.4	0.21205	-0.1	0	0.7	0.64137	37
1357.4244	1	20	n/a	n/a	1	n/a	n/a	n/a	n/a	n/a	0	0	n/a	n/a	n/a
1358.4394	1	80	n/a	n/a	1	n/a	n/a	n/a	n/a	n/a	0	0	n/a	n/a	n/a
1358.5394	1	80	n/a	n/a	1	n/a	n/a	n/a	n/a	n/a	0	0	n/a	n/a	n/a
1358.741	1	31	n/a	n/a	1	n/a	n/a	n/a	n/a	n/a	0	0	n/a	n/a	n/a
1360.7576	1	40	n/a	n/a	1	n/a	n/a	n/a	n/a	n/a	0.1	0	n/a	n/a	n/a
1362.7742	1	10	758.1	758.1	1	0	0	1	0.4	0.95729	-2.3283e-10	0	0.3	0.47153	38
1363.5408	1	20	n/a	n/a	1	n/a	n/a	n/a	n/a	n/a	2.3283e-10	0	n/a	n/a	n/a
1365.4548	1	80	n/a	n/a	1	n/a	n/a	n/a	n/a	n/a	0	0	n/a	n/a	n/a
1365.5548	1	80	n/a	n/a	1	n/a	n/a	n/a	n/a	n/a	0	0	n/a	n/a	n/a
1365.7572	1	31	n/a	n/a	1	n/a	n/a	n/a	n/a	n/a	-0.1	0	n/a	n/a	n/a
1367.7738	1	40	n/a	n/a	1	n/a	n/a	n/a	n/a	n/a	0.1	0	n/a	n/a	n/a
1369.7904	1	10	781.7	781.7	1	0	0	1	0.6	0.76792	-2.3283e-10	0	0.3	0.40188	39
1370.5904	1	20	n/a	n/a	1	n/a	n/a	n/a	n/a	n/a	0.1	0	n/a	n/a	n/a
1371.9164	1	80	n/a	n/a	1	n/a	n/a	n/a	n/a	n/a	-0.1	0	n/a	n/a	n/a
1372.0164	1	80	n/a	n/a	1	n/a	n/a	n/a	n/a	n/a	0	0	n/a	n/a	n/a
1372.2236	1	31	n/a	n/a	1	n/a	n/a	n/a	n/a	n/a	2.3283e-10	0	n/a	n/a	n/a
1374.24	1	40	n/a	n/a	1	n/a	n/a	n/a	n/a	n/a	-0.1	0	n/a	n/a	n/a
1376.2566	1	10	1419.3	1419.3	1	0	0	1	0.6	0.18458	0	0	0.7	0.52688	40
1377.6898	1	20	n/a	n/a	1	n/a	n/a	n/a	n/a	n/a	0	0	n/a	n/a	n/a
1379.575	1	80	n/a	n/a	1	n/a	n/a	n/a	n/a	n/a	0.2	0	n/a	n/a	n/a
1379.675	1	80	n/a	n/a	1	n/a	n/a	n/a	n/a	n/a	0	0	n/a	n/a	n/a
1379.8898	1	30	n/a	n/a	1	n/a	n/a	n/a	n/a	n/a	-0.1	0	n/a	n/a	n/a
1381.9064	1	40	n/a	n/a	1	n/a	n/a	n/a	n/a	n/a	0.1	0	n/a	n/a	n/a
1431.7366	1	10	1138	1138	1	1	0	0	0	0	-0.1	0	0.7	0.7	1
1432.8866	1	20	n/a	n/a	1	n/a	n/a	n/a	n/a	n/a	0	0	n/a	n/a	n/a
1434.3186	1	80	n/a	n/a	1	n/a	n/a	n/a	n/a	n/a	0	0	n/a	n/a	n/a
1434.4186	1	80	n/a	n/a	1	n/a	n/a	n/a	n/a	n/a	0	0	n/a	n/a	n/a
1434.6366	1	31	n/a	n/a	1	n/a	n/a	n/a	n/a	n/a	0.1	0	n/a	n/a	n/a
1436.653	1	10	861.5	861.5	1	1	0	0	0	0	-0.1	0	0.7	0.7	2
1437.5196	1	20	n/a	n/a	1	n/a	n/a	n/a	n/a	n/a	0	0	n/a	n/a	n/a
1439.3326	1	80	n/a	n/a	1	n/a	n/a	n/a	n/a	n/a	0	0	n/a	n/a	n/a
1439.4326	1	80	n/a	n/a	1	n/a	n/a	n/a	n/a	n/a	0	0	n/a	n/a	n/a
1439.6362	1	31	n/a	n/a	1	n/a	n/a	n/a	n/a	n/a	-2.3283e-10	0	n/a	n/a	n/a
1441.6528	1	10	981.7	981.7	1	1	0	0	0	0	0.1	0	0.1	0.1	3
1442.6526	1	20	n/a	n/a	1	n/a	n/a	n/a	n/a	n/a	-0.1	0	n/a	n/a	n/a
1443.7718	1	80	n/a	n/a	1	n/a	n/a	n/a	n/a	n/a	0.1	0	n/a	n/a	n/a
1443.8718	1	80	n/a	n/a	1	n/a	n/a	n/a	n/a	n/a	0	0	n/a	n/a	n/a
1444.086	1	31	n/a	n/a	1	n/a	n/a	n/a	n/a	n/a	0	0	n/a	n/a	n/a
1446.1024	1	10	1267.9	1267.9	1	1	0	0	0	0	-0.1	0	0.7	0.7	4
1447.3858	1	20	n/a	n/a	1	n/a	n/a	n/a	n/a	n/a	0.1	0	n/a	n/a	n/a
1448.4918	1	80	n/a	n/a	1	n/a	n/a	n/a	n/a	n/a	0	0	n/a	n/a	n/a
1448.5918	1	80	n/a	n/a	1	n/a	n/a	n/a	n/a	n/a	0	0	n/a	n/a	n/a
1448.8024	1	31	n/a	n/a	1	n/a	n/a	n/a	n/a	n/a	0	0	n/a	n/a	n/a
1450.8188	1	10	871.4	871.4	1	1	0	0	0	0	-0.1	0	0.8	0.8	5
1451.7022	1	20	n/a	n/a	1	n/a	n/a	n/a	n/a	n/a	0.1	0	n/a	n/a	n/a
1453.2402	1	80	n/a	n/a	1	n/a	n/a	n/a	n/a	n/a	0	0	n/a	n/a	n/a
1453.3402	1	80	n/a	n/a	1	n/a	n/a	n/a	n/a	n/a	0	0	n/a	n/a	n/a
1453.552	1	31	n/a	n/a	1	n/a	n/a	n/a	n/a	n/a	-0.1	0	n/a	n/a	n/a
1455.5686	1	10	729.5	729.5	1	1	0	0	0	0	0.1	0	0.6	0.6	6
1456.3018	1	20	n/a	n/a	1	n/a	n/a	n/a	n/a	n/a	-0.1	0	n/a	n/a	n/a
1458.128	1	80	n/a	n/a	1	n/a	n/a	n/a	n/a	n/a	0.2	0	n/a	n/a	n/a
1458.228	1	80	n/a	n/a	1	n/a	n/a	n/a	n/a	n/a	0	0	n/a	n/a	n/a
1458.435	1	30	n/a	n/a	1	n/a	n/a	n/a	n/a	n/a	-0.2	0	n/a	n/a	n/a
1460.4516	1	10	614.3	614.3	1	1	0	0	0	0	0	0	0.3	0.3	7
1461.0682	1	20	n/a	n/a	1	n/a	n/a	n/a	n/a	n/a	-2.3283e-10	0	n/a	n/a	n/a
1462.4062	1	80	n/a	n/a	1	n/a	n/a	n/a	n/a	n/a	0	0	n/a	n/a	n/a
1462.5062	1	80	n/a	n/a	1	n/a	n/a	n/a	n/a	n/a	0	0	n/a	n/a	n/a
1462.7182	1	31	n/a	n/a	1	n/a	n/a	n/a	n/a	n/a	0.1	0	n/a	n/a	n/a
1464.7848	1	10	633.2	633.2	1	1	0	0	0	0	0.1	0	0.2	0.2	8
1465.4346	1	20	n/a	n/a	1	n/a	n/a	n/a	n/a	n/a	-0.2	0	n/a	n/a	n/a
1466.4946	1	80	n/a	n/a	1	n/a	n/a	n/a	n/a	n/a	0	0	n/a	n/a	n/a
1466.5948	1	80	n/a	n/a	1	n/a	n/a	n/a	n/a	n/a	0.2	0	n/a	n/a	n/a
1466.8012	1	31	n/a	n/a	1	n/a	n/a	n/a	n/a	n/a	-0.2	0	n/a	n/a	n/a
1468.8178	1	10	600	600	1	1	0	0	0	0	0.1	0	0.2	0.2	9
1469.4344	1	20	n/a	n/a	1	n/a	n/a	n/a	n/a	n/a	0	0	n/a	n/a	n/a
1471.3744	1	80	n/a	n/a	1	n/a	n/a	n/a	n/a	n/a	-0.1	0	n/a	n/a	n/a
1471.4744	1	80	n/a	n/a	1	n/a	n/a	n/a	n/a	n/a	0	0	n/a	n/a	n/a
1471.6844	1	31	n/a	n/a	1	n/a	n/a	n/a	n/a	n/a	0.2	0	n/a	n/a	n/a
1473.7008	1	10	1396.8	1396.8	1	1	0	0	0	0	-0.2	0	0.1	0.1	10
1475.1008	1	20	n/a	n/a	1	n/a	n/a	n/a	n/a	n/a	0.1	0	n/a	n/a	n/a
1476.6608	1	80	n/a	n/a	1	n/a	n/a	n/a	n/a	n/a	0	0	n/a	n/a	n/a
1476.7608	1	80	n/a	n/a	1	n/a	n/a	n/a	n/a	n/a	0	0	n/a	n/a	n/a
1476.9674	1	30	n/a	n/a	1	n/a	n/a	n/a	n/a	n/a	0.1	0	n/a	n/a	n/a
1488	1	10	3033.3	3033.3	1	1	0	0	0.8	0.94001	-0.1	0	0.1	0.26002	11
1491.0498	1	20	n/a	n/a	1	n/a	n/a	n/a	n/a	n/a	0	0	n/a	n/a	n/a
1492.6818	1	80	n/a	n/a	1	n/a	n/a	n/a	n/a	n/a	0	0	n/a	n/a	n/a
1492.7818	1	80	n/a	n/a	1	n/a	n/a	n/a	n/a	n/a	0	0	n/a	n/a	n/a
1492.9998	1	31	n/a	n/a	1	n/a	n/a	n/a	n/a	n/a	0.1	0	n/a	n/a	n/a
1495.0162	1	40	n/a	n/a	1	n/a	n/a	n/a	n/a	n/a	-0.1	0	n/a	n/a	n/a
1497.0328	1	10	960.3	960.3	1	1	0	0	0.5	0.99502	0	0	0.1	0.19502	12
1497.9994	1	20	n/a	n/a	1	n/a	n/a	n/a	n/a	n/a	0	0	n/a	n/a	n/a
1499.5614	1	80	n/a	n/a	1	n/a	n/a	n/a	n/a	n/a	0	0	n/a	n/a	n/a
1499.6614	1	80	n/a	n/a	1	n/a	n/a	n/a	n/a	n/a	0	0	n/a	n/a	n/a
1499.866	1	31	n/a	n/a	1	n/a	n/a	n/a	n/a	n/a	0.1	0	n/a	n/a	n/a
1501.8826	1	40	n/a	n/a	1	n/a	n/a	n/a	n/a	n/a	0	0	n/a	n/a	n/a
1503.899	1	10	670	670	1	1	0	0	0.4	0.57018	-0.1	0	0.2	0.046786	13
1504.5824	1	20	n/a	n/a	1	n/a	n/a	n/a	n/a	n/a	0.1	0	n/a	n/a	n/a
1506.1084	1	80	n/a	n/a	1	n/a	n/a	n/a	n/a	n/a	0	0	n/a	n/a	n/a
1506.2084	1	80	n/a	n/a	1	n/a	n/a	n/a	n/a	n/a	0	0	n/a	n/a	n/a
1506.4156	1	31	n/a	n/a	1	n/a	n/a	n/a	n/a	n/a	2.3283e-10	0	n/a	n/a	n/a
1508.4322	1	40	n/a	n/a	1	n/a	n/a	n/a	n/a	n/a	0	0	n/a	n/a	n/a
1510.4486	1	10	872.2	872.2	1	1	0	0	0.6	0.68051	-0.1	0	0.3	0.27077	14
1511.332	1	20	n/a	n/a	1	n/a	n/a	n/a	n/a	n/a	0.1	0	n/a	n/a	n/a
1512.936	1	80	n/a	n/a	1	n/a	n/a	n/a	n/a	n/a	0	0	n/a	n/a	n/a
1513.036	1	80	n/a	n/a	1	n/a	n/a	n/a	n/a	n/a	0	0	n/a	n/a	n/a
1513.2486	1	30	n/a	n/a	1	n/a	n/a	n/a	n/a	n/a	0.1	0	n/a	n/a	n/a
1515.265	1	40	n/a	n/a	1	n/a	n/a	n/a	n/a	n/a	-0.2	0	n/a	n/a	n/a
1517.2816	1	10	791.1	791.1	1	1	0	0	0.6	0.97225	0.1	0	0.9	0.96875	15
1518.0816	1	20	n/a	n/a	1	n/a	n/a	n/a	n/a	n/a	0	0	n/a	n/a	n/a
1519.6336	1	80	n/a	n/a	1	n/a	n/a	n/a	n/a	n/a	0	0	n/a	n/a	n/a
1519.7336	1	80	n/a	n/a	1	n/a	n/a	n/a	n/a	n/a	0	0	n/a	n/a	n/a
1519.9482	1	31	n/a	n/a	1	n/a	n/a	n/a	n/a	n/a	0.1	0	n/a	n/a	n/a
1521.9646	1	40	n/a	n/a	1	n/a	n/a	n/a	n/a	n/a	-0.2	0	n/a	n/a	n/a
1523.9812	1	10	619.4	619.4	1	1	0	0	0.5	0.84758	0.1	0	0.2	0.24758	16
1524.6144	1	20	n/a	n/a	1	n/a	n/a	n/a	n/a	n/a	-0.1	0	n/a	n/a	n/a
1526.3296	1	80	n/a	n/a	1	n/a	n/a	n/a	n/a	n/a	0.1	0	n/a	n/a	n/a
1526.4296	1	80	n/a	n/a	1	n/a	n/a	n/a	n/a	n/a	0	0	n/a	n/a	n/a
1526.631	1	31	n/a	n/a	1	n/a	n/a	n/a	n/a	n/a	-0.1	0	n/a	n/a	n/a
1528.6476	1	40	n/a	n/a	1	n/a	n/a	n/a	n/a	n/a	0.1	0	n/a	n/a	n/a
1530.6642	1	10	1088.2	1088.2	1	1	0	0	0.7	0.0039872	0	0	0.9	0.67597	17
1531.764	1	20	n/a	n/a	1	n/a	n/a	n/a	n/a	n/a	-0.1	0	n/a	n/a	n/a
1532.96	1	80	n/a	n/a	1	n/a	n/a	n/a	n/a	n/a	0	0	n/a	n/a	n/a
1533.06	1	80	n/a	n/a	1	n/a	n/a	n/a	n/a	n/a	0	0	n/a	n/a	n/a
1533.264	1	31	n/a	n/a	1	n/a	n/a	n/a	n/a	n/a	0.1	0	n/a	n/a	n/a
1535.2806	1	40	n/a	n/a	1	n/a	n/a	n/a	n/a	n/a	0.1	0	n/a	n/a	n/a
1537.297	1	10	663.2	663.2	1	1	0	0	0.5	0.91765	-0.2	0	0.1	0.11765	18
1537.9638	1	20	n/a	n/a	1	n/a	n/a	n/a	n/a	n/a	0.2	0	n/a	n/a	n/a
1539.5048	1	80	n/a	n/a	1	n/a	n/a	n/a	n/a	n/a	0	0	n/a	n/a	n/a
1539.6048	1	80	n/a	n/a	1	n/a	n/a	n/a	n/a	n/a	0	0	n/a	n/a	n/a
1539.8136	1	31	n/a	n/a	1	n/a	n/a	n/a	n/a	n/a	-0.1	0	n/a	n/a	n/a
1541.8302	1	40	n/a	n/a	1	n/a	n/a	n/a	n/a	n/a	0.1	0	n/a	n/a	n/a
1543.8466	1	10	657.4	657.4	1	1	0	0	0.5	0.60137	-0.2	0	0.3	0.20137	19
1544.5134	1	20	n/a	n/a	1	n/a	n/a	n/a	n/a	n/a	0.2	0	n/a	n/a	n/a
1546.3974	1	80	n/a	n/a	1	n/a	n/a	n/a	n/a	n/a	0	0	n/a	n/a	n/a
1546.4974	1	80	n/a	n/a	1	n/a	n/a	n/a	n/a	n/a	0	0	n/a	n/a	n/a
1546.7132	1	31	n/a	n/a	1	n/a	n/a	n/a	n/a	n/a	-0.1	0	n/a	n/a	n/a
1548.7298	1	40	n/a	n/a	1	n/a	n/a	n/a	n/a	n/a	0.1	0	n/a	n/a	n/a
1550.7462	1	10	733.6	733.6	1	1	0	0	0.6	0.22803	-0.2	0	0.7	0.59205	20
1551.4962	1	20	n/a	n/a	1	n/a	n/a	n/a	n/a	n/a	0.1	0	n/a	n/a	n/a
1552.9832	1	80	n/a	n/a	1	n/a	n/a	n/a	n/a	n/a	-0.1	0	n/a	n/a	n/a
1553.0832	1	80	n/a	n/a	1	n/a	n/a	n/a	n/a	n/a	0	0	n/a	n/a	n/a
1553.2962	1	31	n/a	n/a	1	n/a	n/a	n/a	n/a	n/a	0.2	0	n/a	n/a	n/a
1555.3126	1	40	n/a	n/a	1	n/a	n/a	n/a	n/a	n/a	-0.2	0	n/a	n/a	n/a
1566.3454	1	10	830.3	830.3	1	1	0	0	0	0	0.2	0	0.2	0.2	21
1567.1786	1	20	n/a	n/a	1	n/a	n/a	n/a	n/a	n/a	-0.1	0	n/a	n/a	n/a
1569.1786	1	80	n/a	n/a	1	n/a	n/a	n/a	n/a	n/a	0	0	n/a	n/a	n/a
1569.2786	1	80	n/a	n/a	1	n/a	n/a	n/a	n/a	n/a	0	0	n/a	n/a	n/a
1569.4952	1	31	n/a	n/a	1	n/a	n/a	n/a	n/a	n/a	0.1	0	n/a	n/a	n/a
1571.5118	1	10	527.7	527.7	1	1	0	0	0	0	2.3283e-10	0	0.1	0.1	22
1572.045	1	20	n/a	n/a	1	n/a	n/a	n/a	n/a	n/a	-0.1	0	n/a	n/a	n/a
1573.471	1	80	n/a	n/a	1	n/a	n/a	n/a	n/a	n/a	0	0	n/a	n/a	n/a
1573.571	1	80	n/a	n/a	1	n/a	n/a	n/a	n/a	n/a	0	0	n/a	n/a	n/a
1573.7782	1	31	n/a	n/a	1	n/a	n/a	n/a	n/a	n/a	0	0	n/a	n/a	n/a
1575.7948	1	10	500.5	500.5	1	1	0	0	0	0	0	0	0.2	0.2	23
1576.3114	1	20	n/a	n/a	1	n/a	n/a	n/a	n/a	n/a	-2.3283e-10	0	n/a	n/a	n/a
1577.7534	1	80	n/a	n/a	1	n/a	n/a	n/a	n/a	n/a	0	0	n/a	n/a	n/a
1577.8534	1	80	n/a	n/a	1	n/a	n/a	n/a	n/a	n/a	0	0	n/a	n/a	n/a
1578.0614	1	31	n/a	n/a	1	n/a	n/a	n/a	n/a	n/a	0.1	0	n/a	n/a	n/a
1580.0778	1	10	1881.4	1881.4	1	1	0	0	0	0	-0.1	0	0.5	0.5	24
1581.9778	1	20	n/a	n/a	1	n/a	n/a	n/a	n/a	n/a	0.1	0	n/a	n/a	n/a
1583.9538	1	80	n/a	n/a	1	n/a	n/a	n/a	n/a	n/a	0	0	n/a	n/a	n/a
1584.0538	1	80	n/a	n/a	1	n/a	n/a	n/a	n/a	n/a	0	0	n/a	n/a	n/a
1584.261	1	31	n/a	n/a	1	n/a	n/a	n/a	n/a	n/a	-2.3283e-10	0	n/a	n/a	n/a
1586.2776	1	10	1249.6	1249.6	1	1	0	0	0	0	2.3283e-10	0	0.5	0.5	25
1587.544	1	20	n/a	n/a	1	n/a	n/a	n/a	n/a	n/a	-0.1	0	n/a	n/a	n/a
1588.8942	1	80	n/a	n/a	1	n/a	n/a	n/a	n/a	n/a	0.1	0	n/a	n/a	n/a
1588.9942	1	80	n/a	n/a	1	n/a	n/a	n/a	n/a	n/a	0	0	n/a	n/a	n/a
1589.2106	1	31	n/a	n/a	1	n/a	n/a	n/a	n/a	n/a	-0.1	0	n/a	n/a	n/a
1591.2272	1	10	1019.8	1019.8	1	1	0	0	0	0	0	0	0.5	0.5	26
1592.2604	1	20	n/a	n/a	1	n/a	n/a	n/a	n/a	n/a	-2.3283e-10	0	n/a	n/a	n/a
1594.2036	1	80	n/a	n/a	1	n/a	n/a	n/a	n/a	n/a	0.1	0	n/a	n/a	n/a
1594.3036	1	80	n/a	n/a	1	n/a	n/a	n/a	n/a	n/a	0	0	n/a	n/a	n/a
1594.5104	1	31	n/a	n/a	1	n/a	n/a	n/a	n/a	n/a	-2.3283e-10	0	n/a	n/a	n/a
1596.527	1	10	712	712	1	1	0	0	0	0	0.1	0	0.5	0.5	27
1597.2436	1	20	n/a	n/a	1	n/a	n/a	n/a	n/a	n/a	-0.1	0	n/a	n/a	n/a
1598.8926	1	80	n/a	n/a	1	n/a	n/a	n/a	n/a	n/a	0	0	n/a	n/a	n/a
1598.9926	1	80	n/a	n/a	1	n/a	n/a	n/a	n/a	n/a	0	0	n/a	n/a	n/a
1599.21	1	31	n/a	n/a	1	n/a	n/a	n/a	n/a	n/a	-0.1	0	n/a	n/a	n/a
1601.2266	1	10	652.2	652.2	1	1	0	0	0	0	0.1	0	0.5	0.5	28
1601.8932	1	20	n/a	n/a	1	n/a	n/a	n/a	n/a	n/a	-0.1	0	n/a	n/a	n/a
1603.7092	1	80	n/a	n/a	1	n/a	n/a	n/a	n/a	n/a	0	0	n/a	n/a	n/a
1603.8092	1	80	n/a	n/a	1	n/a	n/a	n/a	n/a	n/a	0	0	n/a	n/a	n/a
1604.0264	1	31	n/a	n/a	1	n/a	n/a	n/a	n/a	n/a	-2.3283e-10	0	n/a	n/a	n/a
1606.043	1	10	651.7	651.7	1	1	0	0	0	0	0.1	0	0.5	0.5	29
1606.7096	1	20	n/a	n/a	1	n/a	n/a	n/a	n/a	n/a	2.3283e-10	0	n/a	n/a	n/a
1608.4396	1	80	n/a	n/a	1	n/a	n/a	n/a	n/a	n/a	-0.1	0	n/a	n/a	n/a
1608.5396	1	80	n/a	n/a	1	n/a	n/a	n/a	n/a	n/a	0	0	n/a	n/a	n/a
1608.7428	1	30	n/a	n/a	1	n/a	n/a	n/a	n/a	n/a	0	0	n/a	n/a	n/a
1610.7594	1	10	1247.2	1247.2	1	1	0	0	0	0	0.1	0	0.7	0.7	30
1612.0094	1	20	n/a	n/a	1	n/a	n/a	n/a	n/a	n/a	0.1	0	n/a	n/a	n/a
1613.4274	1	80	n/a	n/a	1	n/a	n/a	n/a	n/a	n/a	-0.1	0	n/a	n/a	n/a
1613.5274	1	80	n/a	n/a	1	n/a	n/a	n/a	n/a	n/a	0	0	n/a	n/a	n/a
1613.7426	1	30	n/a	n/a	1	n/a	n/a	n/a	n/a	n/a	2.3283e-10	0	n/a	n/a	n/a
1624.7754	1	10	1119.1	1119.1	1	1	0	0	0.4	0.33235	0.2	0	0.1	0.020833	31
1625.9084	1	20	n/a	n/a	1	n/a	n/a	n/a	n/a	n/a	-0.3	0	n/a	n/a	n/a
1627.8846	1	80	n/a	n/a	1	n/a	n/a	n/a	n/a	n/a	0.2	0	n/a	n/a	n/a
1627.9846	1	80	n/a	n/a	1	n/a	n/a	n/a	n/a	n/a	0	0	n/a	n/a	n/a
1628.1916	1	31	n/a	n/a	1	n/a	n/a	n/a	n/a	n/a	-0.2	0	n/a	n/a	n/a
1630.2082	1	40	n/a	n/a	1	n/a	n/a	n/a	n/a	n/a	0.1	0	n/a	n/a	n/a
1632.2248	1	10	1285.3	1285.3	1	1	0	0	0.8	0.27485	2.3283e-10	0	0.1	0.0625	32
1633.5248	1	20	n/a	n/a	1	n/a	n/a	n/a	n/a	n/a	0.1	0	n/a	n/a	n/a
1635.1038	1	80	n/a	n/a	1	n/a	n/a	n/a	n/a	n/a	-0.1	0	n/a	n/a	n/a
1635.2038	1	80	n/a	n/a	1	n/a	n/a	n/a	n/a	n/a	0	0	n/a	n/a	n/a
1635.408	1	31	n/a	n/a	1	n/a	n/a	n/a	n/a	n/a	0.1	0	n/a	n/a	n/a
1637.4244	1	40	n/a	n/a	1	n/a	n/a	n/a	n/a	n/a	-0.1	0	n/a	n/a	n/a
1639.441	1	10	980.9	980.9	1	1	0	0	0.4	0.55575	0	0	0.4	0.3705	33
1640.441	1	20	n/a	n/a	1	n/a	n/a	n/a	n/a	n/a	17.8	0	n/a	n/a	n/a
1642.3162	1	80	n/a	n/a	1	n/a	n/a	n/a	n/a	n/a	-17.8	0	n/a	n/a	n/a
1642.4162	1	80	n/a	n/a	1	n/a	n/a	n/a	n/a	n/a	0	0	n/a	n/a	n/a
1642.6242	1	31	n/a	n/a	1	n/a	n/a	n/a	n/a	n/a	0.1	0	n/a	n/a	n/a
1644.6408	1	40	n/a	n/a	1	n/a	n/a	n/a	n/a	n/a	0	0	n/a	n/a	n/a
1646.6572	1	10	644.5	644.5	1	1	0	0	0.4	0.23553	-0.1	0	0.8	0.82369	34
1647.3072	1	20	n/a	n/a	1	n/a	n/a	n/a	n/a	n/a	0	0	n/a	n/a	n/a
1648.6882	1	80	n/a	n/a	1	n/a	n/a	n/a	n/a	n/a	0	0	n/a	n/a	n/a
1648.7882	1	80	n/a	n/a	1	n/a	n/a	n/a	n/a	n/a	0	0	n/a	n/a	n/a
1648.9904	1	31	n/a	n/a	1	n/a	n/a	n/a	n/a	n/a	0	0	n/a	n/a	n/a
1651.007	1	40	n/a	n/a	1	n/a	n/a	n/a	n/a	n/a	0	0	n/a	n/a	n/a
1653.0236	1	10	758.1	758.1	1	1	0	0	0.4	0.96756	0.1	0	0.1	0.14504	35
1653.7902	1	20	n/a	n/a	1	n/a	n/a	n/a	n/a	n/a	0	0	n/a	n/a	n/a
1655.7792	1	80	n/a	n/a	1	n/a	n/a	n/a	n/a	n/a	-0.1	0	n/a	n/a	n/a
1655.8792	1	80	n/a	n/a	1	n/a	n/a	n/a	n/a	n/a	0	0	n/a	n/a	n/a
1656.09	1	31	n/a	n/a	1	n/a	n/a	n/a	n/a	n/a	0	0	n/a	n/a	n/a
1658.1066	1	40	n/a	n/a	1	n/a	n/a	n/a	n/a	n/a	0.1	0	n/a	n/a	n/a
1660.1232	1	10	1178.3	1178.3	1	1	0	0	0.8	0.038575	0	0	0.9	0.6543	36
1661.3064	1	20	n/a	n/a	1	n/a	n/a	n/a	n/a	n/a	0	0	n/a	n/a	n/a
1662.7744	1	80	n/a	n/a	1	n/a	n/a	n/a	n/a	n/a	-0.1	0	n/a	n/a	n/a
1662.8744	1	80	n/a	n/a	1	n/a	n/a	n/a	n/a	n/a	0	0	n/a	n/a	n/a
1663.0896	1	30	n/a	n/a	1	n/a	n/a	n/a	n/a	n/a	2.3283e-10	0	n/a	n/a	n/a
1665.1062	1	40	n/a	n/a	1	n/a	n/a	n/a	n/a	n/a	0.1	0	n/a	n/a	n/a
1667.1228	1	10	2738.6	2738.6	1	1	0	0	0.7	0.45427	0.1	0	0.9	0.95833	37
1669.8726	1	20	n/a	n/a	1	n/a	n/a	n/a	n/a	n/a	-0.1	0	n/a	n/a	n/a
1671.5746	1	80	n/a	n/a	1	n/a	n/a	n/a	n/a	n/a	0	0	n/a	n/a	n/a
1671.6746	1	80	n/a	n/a	1	n/a	n/a	n/a	n/a	n/a	0	0	n/a	n/a	n/a
1671.8892	1	31	n/a	n/a	1	n/a	n/a	n/a	n/a	n/a	0.1	0	n/a	n/a	n/a
1673.9056	1	40	n/a	n/a	1	n/a	n/a	n/a	n/a	n/a	-0.2	0	n/a	n/a	n/a
1675.9222	1	10	1218.9	1218.9	1	1	0	0	0.5	0.6931	0.1	0	0.1	0.025	38
1677.1554	1	20	n/a	n/a	1	n/a	n/a	n/a	n/a	n/a	-0.1	0	n/a	n/a	n/a
1678.2754	1	80	n/a	n/a	1	n/a	n/a	n/a	n/a	n/a	0	0	n/a	n/a	n/a
1678.3754	1	80	n/a	n/a	1	n/a	n/a	n/a	n/a	n/a	0	0	n/a	n/a	n/a
1678.5888	1	31	n/a	n/a	1	n/a	n/a	n/a	n/a	n/a	0.2	0	n/a	n/a	n/a
1680.6052	1	40	n/a	n/a	1	n/a	n/a	n/a	n/a	n/a	-0.2	0	n/a	n/a	n/a
1682.6218	1	10	999.1	999.1	1	1	0	0	0.5	0.98147	0.1	0	0.3	0.58147	39
1683.6384	1	20	n/a	n/a	1	n/a	n/a	n/a	n/a	n/a	0	0	n/a	n/a	n/a
1684.7494	1	80	n/a	n/a	1	n/a	n/a	n/a	n/a	n/a	0	0	n/a	n/a	n/a
1684.8494	1	80	n/a	n/a	1	n/a	n/a	n/a	n/a	n/a	0	0	n/a	n/a	n/a
1685.055	1	30	n/a	n/a	1	n/a	n/a	n/a	n/a	n/a	0	0	n/a	n/a	n/a
1687.0716	1	40	n/a	n/a	1	n/a	n/a	n/a	n/a	n/a	0.1	0	n/a	n/a	n/a
1689.088	1	10	1812.7	1812.7	1	1	0	0	0.4	0.47226	-0.2	0	0.6	0.64817	40
1690.9046	1	20	n/a	n/a	1	n/a	n/a	n/a	n/a	n/a	0.1	0	n/a	n/a	n/a
1692.1956	1	80	n/a	n/a	1	n/a	n/a	n/a	n/a	n/a	-0.1	0	n/a	n/a	n/a
1692.2956	1	80	n/a	n/a	1	n/a	n/a	n/a	n/a	n/a	0	0	n/a	n/a	n/a
1692.5046	1	30	n/a	n/a	1	n/a	n/a	n/a	n/a	n/a	0.2	0	n/a	n/a	n/a
1694.521	1	40	n/a	n/a	1	n/a	n/a	n/a	n/a	n/a	-0.2	0	n/a	n/a	n/a
1727.7692	1	10	1194.7	1194.7	1	0	0	1	0	0	0.2	0	0.5	0.5	1
1728.969	1	20	n/a	n/a	1	n/a	n/a	n/a	n/a	n/a	-0.1	0	n/a	n/a	n/a
1730.129	1	80	n/a	n/a	1	n/a	n/a	n/a	n/a	n/a	0	0	n/a	n/a	n/a
1730.229	1	80	n/a	n/a	1	n/a	n/a	n/a	n/a	n/a	0	0	n/a	n/a	n/a
1730.4356	1	30	n/a	n/a	1	n/a	n/a	n/a	n/a	n/a	0	0	n/a	n/a	n/a
1732.4522	1	10	783.6	783.6	1	0	0	1	0	0	0.1	0	0.8	0.8	2
1733.2522	1	20	n/a	n/a	1	n/a	n/a	n/a	n/a	n/a	0	0	n/a	n/a	n/a
1734.5362	1	80	n/a	n/a	1	n/a	n/a	n/a	n/a	n/a	0	0	n/a	n/a	n/a
1734.6362	1	80	n/a	n/a	1	n/a	n/a	n/a	n/a	n/a	0	0	n/a	n/a	n/a
1734.852	1	31	n/a	n/a	1	n/a	n/a	n/a	n/a	n/a	-0.1	0	n/a	n/a	n/a
1736.8686	1	10	591.1	591.1	1	0	0	1	0	0	0.1	0	0.7	0.7	3
1737.4686	1	20	n/a	n/a	1	n/a	n/a	n/a	n/a	n/a	0	0	n/a	n/a	n/a
1738.5586	1	80	n/a	n/a	1	n/a	n/a	n/a	n/a	n/a	0	0	n/a	n/a	n/a
1738.6586	1	80	n/a	n/a	1	n/a	n/a	n/a	n/a	n/a	0	0	n/a	n/a	n/a
1738.8684	1	31	n/a	n/a	1	n/a	n/a	n/a	n/a	n/a	-0.1	0	n/a	n/a	n/a
1740.885	1	10	1022.6	1022.6	1	0	0	1	0	0	0.1	0	0.1	0.1	4
1741.9182	1	20	n/a	n/a	1	n/a	n/a	n/a	n/a	n/a	-0.1	0	n/a	n/a	n/a
1743.2154	1	80	n/a	n/a	1	n/a	n/a	n/a	n/a	n/a	0.2	0	n/a	n/a	n/a
1743.3154	1	80	n/a	n/a	1	n/a	n/a	n/a	n/a	n/a	0	0	n/a	n/a	n/a
1743.5182	1	31	n/a	n/a	1	n/a	n/a	n/a	n/a	n/a	-0.1	0	n/a	n/a	n/a
1745.5348	1	10	1492.7	1492.7	1	0	0	1	0	0	2.3283e-10	0	0.1	0.1	5
1747.0346	1	20	n/a	n/a	1	n/a	n/a	n/a	n/a	n/a	-0.1	0	n/a	n/a	n/a
1748.0646	1	80	n/a	n/a	1	n/a	n/a	n/a	n/a	n/a	0	0	n/a	n/a	n/a
1748.1646	1	80	n/a	n/a	1	n/a	n/a	n/a	n/a	n/a	0	0	n/a	n/a	n/a
1748.368	1	30	n/a	n/a	1	n/a	n/a	n/a	n/a	n/a	0.2	0	n/a	n/a	n/a
1750.3844	1	10	2754.8	2754.8	1	0	0	1	0	0	-0.2	0	0.9	0.9	6
1753.151	1	20	n/a	n/a	1	n/a	n/a	n/a	n/a	n/a	0.1	0	n/a	n/a	n/a
1754.572	1	80	n/a	n/a	1	n/a	n/a	n/a	n/a	n/a	0	0	n/a	n/a	n/a
1754.672	1	80	n/a	n/a	1	n/a	n/a	n/a	n/a	n/a	0	0	n/a	n/a	n/a
1754.8842	1	30	n/a	n/a	1	n/a	n/a	n/a	n/a	n/a	-2.3283e-10	0	n/a	n/a	n/a
1756.9008	1	10	574.5	574.5	1	0	0	1	0	0	0.1	0	0.6	0.6	7
1757.484	1	20	n/a	n/a	1	n/a	n/a	n/a	n/a	n/a	-0.1	0	n/a	n/a	n/a
1758.767	1	80	n/a	n/a	1	n/a	n/a	n/a	n/a	n/a	-0.1	0	n/a	n/a	n/a
1758.867	1	80	n/a	n/a	1	n/a	n/a	n/a	n/a	n/a	0	0	n/a	n/a	n/a
1759.084	1	30	n/a	n/a	1	n/a	n/a	n/a	n/a	n/a	0.2	0	n/a	n/a	n/a
1761.1004	1	10	614.6	614.6	1	0	0	1	0	0	-0.2	0	0.3	0.3	8
1761.7338	1	20	n/a	n/a	1	n/a	n/a	n/a	n/a	n/a	0.1	0	n/a	n/a	n/a
1763.0928	1	80	n/a	n/a	1	n/a	n/a	n/a	n/a	n/a	0	0	n/a	n/a	n/a
1763.1928	1	80	n/a	n/a	1	n/a	n/a	n/a	n/a	n/a	0	0	n/a	n/a	n/a
1763.4004	1	31	n/a	n/a	1	n/a	n/a	n/a	n/a	n/a	0.1	0	n/a	n/a	n/a
1765.4168	1	10	3338	3338	1	0	0	1	0	0	-0.2	0	0.4	0.4	9
1768.7666	1	20	n/a	n/a	1	n/a	n/a	n/a	n/a	n/a	0	0	n/a	n/a	n/a
1770.4718	1	80	n/a	n/a	1	n/a	n/a	n/a	n/a	n/a	0.2	0	n/a	n/a	n/a
1770.5718	1	80	n/a	n/a	1	n/a	n/a	n/a	n/a	n/a	0	0	n/a	n/a	n/a
1770.7832	1	31	n/a	n/a	1	n/a	n/a	n/a	n/a	n/a	-0.1	0	n/a	n/a	n/a
1772.7998	1	10	1315	1315	1	0	0	1	0	0	2.3283e-10	0	0.1	0.1	10
1774.133	1	20	n/a	n/a	1	n/a	n/a	n/a	n/a	n/a	0	0	n/a	n/a	n/a
1775.951	1	80	n/a	n/a	1	n/a	n/a	n/a	n/a	n/a	-0.1	0	n/a	n/a	n/a
1776.051	1	80	n/a	n/a	1	n/a	n/a	n/a	n/a	n/a	0	0	n/a	n/a	n/a
1776.2662	1	30	n/a	n/a	1	n/a	n/a	n/a	n/a	n/a	0.1	0	n/a	n/a	n/a
1787.299	1	10	1071.6	1071.6	1	0	0	1	0.4	0.44901	0.1	0	0.9	0.97917	11
1788.3822	1	20	n/a	n/a	1	n/a	n/a	n/a	n/a	n/a	-0.1	0	n/a	n/a	n/a
1789.4402	1	80	n/a	n/a	1	n/a	n/a	n/a	n/a	n/a	0	0	n/a	n/a	n/a
1789.5402	1	80	n/a	n/a	1	n/a	n/a	n/a	n/a	n/a	0	0	n/a	n/a	n/a
1789.7488	1	31	n/a	n/a	1	n/a	n/a	n/a	n/a	n/a	0.1	0	n/a	n/a	n/a
1791.7654	1	40	n/a	n/a	1	n/a	n/a	n/a	n/a	n/a	0	0	n/a	n/a	n/a
1793.7818	1	10	748.5	748.5	1	0	0	1	0.6	0.21616	-0.1	0	0.1	0.03125	12
1794.5486	1	20	n/a	n/a	1	n/a	n/a	n/a	n/a	n/a	0.1	0	n/a	n/a	n/a
1795.6266	1	80	n/a	n/a	1	n/a	n/a	n/a	n/a	n/a	0	0	n/a	n/a	n/a
1795.7266	1	80	n/a	n/a	1	n/a	n/a	n/a	n/a	n/a	0	0	n/a	n/a	n/a
1795.9318	1	31	n/a	n/a	1	n/a	n/a	n/a	n/a	n/a	-2.3283e-10	0	n/a	n/a	n/a
1797.9482	1	40	n/a	n/a	1	n/a	n/a	n/a	n/a	n/a	-0.1	0	n/a	n/a	n/a
1799.9648	1	10	1429.4	1429.4	1	0	0	1	0.8	0.25686	2.3283e-10	0	0.6	0.0625	13
1801.398	1	20	n/a	n/a	1	n/a	n/a	n/a	n/a	n/a	0	0	n/a	n/a	n/a
1802.8272	1	80	n/a	n/a	1	n/a	n/a	n/a	n/a	n/a	0.1	0	n/a	n/a	n/a
1802.9272	1	80	n/a	n/a	1	n/a	n/a	n/a	n/a	n/a	0	0	n/a	n/a	n/a
1803.1314	1	31	n/a	n/a	1	n/a	n/a	n/a	n/a	n/a	0	0	n/a	n/a	n/a
1805.1478	1	40	n/a	n/a	1	n/a	n/a	n/a	n/a	n/a	-0.1	0	n/a	n/a	n/a
1807.1644	1	10	949.6	949.6	1	0	0	1	0.8	0.72069	-2.3283e-10	0	0.4	0.88275	14
1808.131	1	20	n/a	n/a	1	n/a	n/a	n/a	n/a	n/a	2.3283e-10	0	n/a	n/a	n/a
1810.096	1	80	n/a	n/a	1	n/a	n/a	n/a	n/a	n/a	0	0	n/a	n/a	n/a
1810.196	1	80	n/a	n/a	1	n/a	n/a	n/a	n/a	n/a	0	0	n/a	n/a	n/a
1810.3976	1	31	n/a	n/a	1	n/a	n/a	n/a	n/a	n/a	0.1	0	n/a	n/a	n/a
1812.4142	1	40	n/a	n/a	1	n/a	n/a	n/a	n/a	n/a	0.1	0	n/a	n/a	n/a
1814.4306	1	10	627.2	627.2	1	0	0	1	0.7	0.95441	-0.2	0	0.1	0.22697	15
1815.064	1	20	n/a	n/a	1	n/a	n/a	n/a	n/a	n/a	0.1	0	n/a	n/a	n/a
1816.208	1	80	n/a	n/a	1	n/a	n/a	n/a	n/a	n/a	0	0	n/a	n/a	n/a
1816.308	1	80	n/a	n/a	1	n/a	n/a	n/a	n/a	n/a	0	0	n/a	n/a	n/a
1816.5138	1	31	n/a	n/a	1	n/a	n/a	n/a	n/a	n/a	-0.1	0	n/a	n/a	n/a
1818.5304	1	40	n/a	n/a	1	n/a	n/a	n/a	n/a	n/a	0.1	0	n/a	n/a	n/a
1820.547	1	10	782.8	782.8	1	0	0	1	0.5	0.72751	0	0	0.3	0.32751	16
1821.347	1	20	n/a	n/a	1	n/a	n/a	n/a	n/a	n/a	0.1	0	n/a	n/a	n/a
1823.342	1	80	n/a	n/a	1	n/a	n/a	n/a	n/a	n/a	-0.1	0	n/a	n/a	n/a
1823.442	1	80	n/a	n/a	1	n/a	n/a	n/a	n/a	n/a	0	0	n/a	n/a	n/a
1823.6468	1	30	n/a	n/a	1	n/a	n/a	n/a	n/a	n/a	0	0	n/a	n/a	n/a
1825.6634	1	40	n/a	n/a	1	n/a	n/a	n/a	n/a	n/a	0.1	0	n/a	n/a	n/a
1827.6798	1	10	1633.7	1633.7	1	0	0	1	0.5	0.85097	-0.2	0	0.4	0.65097	17
1829.3298	1	20	n/a	n/a	1	n/a	n/a	n/a	n/a	n/a	0.1	0	n/a	n/a	n/a
1830.4678	1	80	n/a	n/a	1	n/a	n/a	n/a	n/a	n/a	0	0	n/a	n/a	n/a
1830.5678	1	80	n/a	n/a	1	n/a	n/a	n/a	n/a	n/a	0	0	n/a	n/a	n/a
1830.7796	1	30	n/a	n/a	1	n/a	n/a	n/a	n/a	n/a	-0.1	0	n/a	n/a	n/a
1832.7962	1	40	n/a	n/a	1	n/a	n/a	n/a	n/a	n/a	0.1	0	n/a	n/a	n/a
1834.8128	1	10	676.6	676.6	1	0	0	1	0.5	0.8649	0	0	0.1	0.064897	18
1835.496	1	20	n/a	n/a	1	n/a	n/a	n/a	n/a	n/a	-0.1	0	n/a	n/a	n/a
1836.498	1	80	n/a	n/a	1	n/a	n/a	n/a	n/a	n/a	0	0	n/a	n/a	n/a
1836.598	1	80	n/a	n/a	1	n/a	n/a	n/a	n/a	n/a	0	0	n/a	n/a	n/a
1836.8126	1	31	n/a	n/a	1	n/a	n/a	n/a	n/a	n/a	0	0	n/a	n/a	n/a
1838.8292	1	40	n/a	n/a	1	n/a	n/a	n/a	n/a	n/a	0.1	0	n/a	n/a	n/a
1840.8458	1	10	851.6	851.6	1	0	0	1	0.8	0.46665	0.1	0	0.5	0.36659	19
1841.7124	1	20	n/a	n/a	1	n/a	n/a	n/a	n/a	n/a	-0.1	0	n/a	n/a	n/a
1843.4464	1	80	n/a	n/a	1	n/a	n/a	n/a	n/a	n/a	0	0	n/a	n/a	n/a
1843.5464	1	80	n/a	n/a	1	n/a	n/a	n/a	n/a	n/a	0	0	n/a	n/a	n/a
1843.7622	1	30	n/a	n/a	1	n/a	n/a	n/a	n/a	n/a	0	0	n/a	n/a	n/a
1845.7788	1	40	n/a	n/a	1	n/a	n/a	n/a	n/a	n/a	0	0	n/a	n/a	n/a
1847.7954	1	10	909.8	909.8	1	0	0	1	0.8	0.36028	0.1	0	0.3	0.0625	20
1848.712	1	20	n/a	n/a	1	n/a	n/a	n/a	n/a	n/a	2.3283e-10	0	n/a	n/a	n/a
1849.738	1	80	n/a	n/a	1	n/a	n/a	n/a	n/a	n/a	-0.1	0	n/a	n/a	n/a
1849.838	1	80	n/a	n/a	1	n/a	n/a	n/a	n/a	n/a	0	0	n/a	n/a	n/a
1850.0452	1	30	n/a	n/a	1	n/a	n/a	n/a	n/a	n/a	0	0	n/a	n/a	n/a
1852.0618	1	40	n/a	n/a	1	n/a	n/a	n/a	n/a	n/a	0.1	0	n/a	n/a	n/a
1863.0944	1	10	1482.3	1482.3	1	0	0	1	0	0	-0.1	0	0.5	0.5	21
1864.5944	1	20	n/a	n/a	1	n/a	n/a	n/a	n/a	n/a	0.1	0	n/a	n/a	n/a
1865.7144	1	80	n/a	n/a	1	n/a	n/a	n/a	n/a	n/a	0	0	n/a	n/a	n/a
1865.8144	1	80	n/a	n/a	1	n/a	n/a	n/a	n/a	n/a	0	0	n/a	n/a	n/a
1866.0276	1	31	n/a	n/a	1	n/a	n/a	n/a	n/a	n/a	-0.1	0	n/a	n/a	n/a
1868.0442	1	10	5236.4	5236.4	1	0	0	1	0	0	0.1	0	0.7	0.7	22
1873.2938	1	20	n/a	n/a	1	n/a	n/a	n/a	n/a	n/a	-0.1	0	n/a	n/a	n/a
1874.5368	1	80	n/a	n/a	1	n/a	n/a	n/a	n/a	n/a	0	0	n/a	n/a	n/a
1874.6368	1	80	n/a	n/a	1	n/a	n/a	n/a	n/a	n/a	0	0	n/a	n/a	n/a
1874.8438	1	30	n/a	n/a	1	n/a	n/a	n/a	n/a	n/a	0.1	0	n/a	n/a	n/a
1876.8602	1	10	804.2	804.2	1	0	0	1	0	0	-0.1	0	0.1	0.1	23
1877.677	1	20	n/a	n/a	1	n/a	n/a	n/a	n/a	n/a	0.2	0	n/a	n/a	n/a
1878.921	1	80	n/a	n/a	1	n/a	n/a	n/a	n/a	n/a	-0.1	0	n/a	n/a	n/a
1879.021	1	80	n/a	n/a	1	n/a	n/a	n/a	n/a	n/a	0	0	n/a	n/a	n/a
1879.2268	1	31	n/a	n/a	1	n/a	n/a	n/a	n/a	n/a	0	0	n/a	n/a	n/a
1881.2434	1	10	2341	2341	1	0	0	1	0	0	-2.3283e-10	0	0.1	0.1	24
1883.5932	1	20	n/a	n/a	1	n/a	n/a	n/a	n/a	n/a	-0.1	0	n/a	n/a	n/a
1885.5602	1	80	n/a	n/a	1	n/a	n/a	n/a	n/a	n/a	0	0	n/a	n/a	n/a
1885.6602	1	80	n/a	n/a	1	n/a	n/a	n/a	n/a	n/a	0	0	n/a	n/a	n/a
1885.8764	1	31	n/a	n/a	1	n/a	n/a	n/a	n/a	n/a	0	0	n/a	n/a	n/a
1887.893	1	10	1435.2	1435.2	1	0	0	1	0	0	0.1	0	0.7	0.7	25
1889.3428	1	20	n/a	n/a	1	n/a	n/a	n/a	n/a	n/a	-0.1	0	n/a	n/a	n/a
1891.324	1	80	n/a	n/a	1	n/a	n/a	n/a	n/a	n/a	0.2	0	n/a	n/a	n/a
1891.4238	1	80	n/a	n/a	1	n/a	n/a	n/a	n/a	n/a	-0.2	0	n/a	n/a	n/a
1891.626	1	30	n/a	n/a	1	n/a	n/a	n/a	n/a	n/a	0	0	n/a	n/a	n/a
1893.6426	1	10	629.5	629.5	1	0	0	1	0	0	0.1	0	0.4	0.4	26
1894.276	1	20	n/a	n/a	1	n/a	n/a	n/a	n/a	n/a	0.1	0	n/a	n/a	n/a
1895.76	1	80	n/a	n/a	1	n/a	n/a	n/a	n/a	n/a	-0.1	0	n/a	n/a	n/a
1895.86	1	80	n/a	n/a	1	n/a	n/a	n/a	n/a	n/a	0	0	n/a	n/a	n/a
1896.0758	1	31	n/a	n/a	1	n/a	n/a	n/a	n/a	n/a	0	0	n/a	n/a	n/a
1898.0924	1	10	947.6	947.6	1	0	0	1	0	0	-2.3283e-10	0	0.2	0.2	27
1899.0424	1	20	n/a	n/a	1	n/a	n/a	n/a	n/a	n/a	0.1	0	n/a	n/a	n/a
1900.3304	1	80	n/a	n/a	1	n/a	n/a	n/a	n/a	n/a	-0.1	0	n/a	n/a	n/a
1900.4304	1	80	n/a	n/a	1	n/a	n/a	n/a	n/a	n/a	0	0	n/a	n/a	n/a
1900.6422	1	31	n/a	n/a	1	n/a	n/a	n/a	n/a	n/a	2.3283e-10	0	n/a	n/a	n/a
1902.6588	1	10	1837.1	1837.1	1	0	0	1	0	0	0	0	0.4	0.4	28
1904.5086	1	20	n/a	n/a	1	n/a	n/a	n/a	n/a	n/a	-0.1	0	n/a	n/a	n/a
1906.0666	1	80	n/a	n/a	1	n/a	n/a	n/a	n/a	n/a	0	0	n/a	n/a	n/a
1906.1666	1	80	n/a	n/a	1	n/a	n/a	n/a	n/a	n/a	0	0	n/a	n/a	n/a
1906.3752	1	30	n/a	n/a	1	n/a	n/a	n/a	n/a	n/a	0.1	0	n/a	n/a	n/a
1908.3918	1	10	984	984	1	0	0	1	0	0	0.1	0	0.1	0.1	29
1909.3916	1	20	n/a	n/a	1	n/a	n/a	n/a	n/a	n/a	-0.2	0	n/a	n/a	n/a
1910.7568	1	80	n/a	n/a	1	n/a	n/a	n/a	n/a	n/a	0.2	0	n/a	n/a	n/a
1910.8568	1	80	n/a	n/a	1	n/a	n/a	n/a	n/a	n/a	0	0	n/a	n/a	n/a
1911.0582	1	30	n/a	n/a	1	n/a	n/a	n/a	n/a	n/a	-0.2	0	n/a	n/a	n/a
1913.0748	1	10	1420.8	1420.8	1	0	0	1	0	0	0.1	0	0.1	0.1	30
1914.508	1	20	n/a	n/a	1	n/a	n/a	n/a	n/a	n/a	0	0	n/a	n/a	n/a
1915.655	1	80	n/a	n/a	1	n/a	n/a	n/a	n/a	n/a	-0.1	0	n/a	n/a	n/a
1915.755	1	80	n/a	n/a	1	n/a	n/a	n/a	n/a	n/a	0	0	n/a	n/a	n/a
1915.958	1	30	n/a	n/a	1	n/a	n/a	n/a	n/a	n/a	0.1	0	n/a	n/a	n/a
1926.9906	1	10	1360.7	1360.7	1	0	0	1	0.7	0.48454	0	0	0.5	0.46393	31
1928.3572	1	20	n/a	n/a	1	n/a	n/a	n/a	n/a	n/a	0	0	n/a	n/a	n/a
1930.1172	1	80	n/a	n/a	1	n/a	n/a	n/a	n/a	n/a	0	0	n/a	n/a	n/a
1930.2172	1	80	n/a	n/a	1	n/a	n/a	n/a	n/a	n/a	0	0	n/a	n/a	n/a
1930.4238	1	31	n/a	n/a	1	n/a	n/a	n/a	n/a	n/a	0.1	0	n/a	n/a	n/a
1932.4404	1	40	n/a	n/a	1	n/a	n/a	n/a	n/a	n/a	-2.3283e-10	0	n/a	n/a	n/a
1934.4568	1	10	742.3	742.3	1	0	0	1	0.7	0.7472	-0.1	0	0.2	0.076803	32
1935.2068	1	20	n/a	n/a	1	n/a	n/a	n/a	n/a	n/a	0	0	n/a	n/a	n/a
1937.0618	1	80	n/a	n/a	1	n/a	n/a	n/a	n/a	n/a	0	0	n/a	n/a	n/a
1937.1618	1	80	n/a	n/a	1	n/a	n/a	n/a	n/a	n/a	0	0	n/a	n/a	n/a
1937.3734	1	30	n/a	n/a	1	n/a	n/a	n/a	n/a	n/a	0.1	0	n/a	n/a	n/a
1939.39	1	40	n/a	n/a	1	n/a	n/a	n/a	n/a	n/a	0	0	n/a	n/a	n/a
1941.4064	1	10	752.6	752.6	1	0	0	1	0.7	0.95615	-0.1	0	0.1	0.23102	33
1942.173	1	20	n/a	n/a	1	n/a	n/a	n/a	n/a	n/a	2.3283e-10	0	n/a	n/a	n/a
1943.298	1	80	n/a	n/a	1	n/a	n/a	n/a	n/a	n/a	-0.1	0	n/a	n/a	n/a
1943.398	1	80	n/a	n/a	1	n/a	n/a	n/a	n/a	n/a	0	0	n/a	n/a	n/a
1943.6064	1	30	n/a	n/a	1	n/a	n/a	n/a	n/a	n/a	0.2	0	n/a	n/a	n/a
1945.6228	1	40	n/a	n/a	1	n/a	n/a	n/a	n/a	n/a	-0.1	0	n/a	n/a	n/a
1947.6394	1	10	967.4	967.4	1	0	0	1	0.7	0.66418	-2.3283e-10	0	0.1	0.041667	34
1948.6226	1	20	n/a	n/a	1	n/a	n/a	n/a	n/a	n/a	2.3283e-10	0	n/a	n/a	n/a
1949.9128	1	80	n/a	n/a	1	n/a	n/a	n/a	n/a	n/a	0.1	0	n/a	n/a	n/a
1950.0128	1	80	n/a	n/a	1	n/a	n/a	n/a	n/a	n/a	0	0	n/a	n/a	n/a
1950.2226	1	31	n/a	n/a	1	n/a	n/a	n/a	n/a	n/a	0	0	n/a	n/a	n/a
1952.2392	1	40	n/a	n/a	1	n/a	n/a	n/a	n/a	n/a	-2.3283e-10	0	n/a	n/a	n/a
1954.2558	1	10	1887	1887	1	0	0	1	0.4	0.6463	0.1	0	0.6	0.7642	35
1956.1556	1	20	n/a	n/a	1	n/a	n/a	n/a	n/a	n/a	-0.1	0	n/a	n/a	n/a
1957.4736	1	80	n/a	n/a	1	n/a	n/a	n/a	n/a	n/a	0	0	n/a	n/a	n/a
1957.5736	1	80	n/a	n/a	1	n/a	n/a	n/a	n/a	n/a	0	0	n/a	n/a	n/a
1957.7888	1	31	n/a	n/a	1	n/a	n/a	n/a	n/a	n/a	0	0	n/a	n/a	n/a
1959.8054	1	40	n/a	n/a	1	n/a	n/a	n/a	n/a	n/a	-2.3283e-10	0	n/a	n/a	n/a
1961.822	1	10	912.6	912.6	1	0	0	1	0.5	0.63283	0.1	0	0.6	0.83283	36
1962.7386	1	20	n/a	n/a	1	n/a	n/a	n/a	n/a	n/a	-0.1	0	n/a	n/a	n/a
1964.0866	1	80	n/a	n/a	1	n/a	n/a	n/a	n/a	n/a	0	0	n/a	n/a	n/a
1964.1866	1	80	n/a	n/a	1	n/a	n/a	n/a	n/a	n/a	0	0	n/a	n/a	n/a
1964.3884	1	31	n/a	n/a	1	n/a	n/a	n/a	n/a	n/a	-0.1	0	n/a	n/a	n/a
1966.405	1	40	n/a	n/a	1	n/a	n/a	n/a	n/a	n/a	0.1	0	n/a	n/a	n/a
1968.4216	1	10	3400.8	3400.8	1	0	0	1	0.8	0.82184	0.1	0	0.3	0.78735	37
1971.838	1	20	n/a	n/a	1	n/a	n/a	n/a	n/a	n/a	-0.1	0	n/a	n/a	n/a
1973.188	1	80	n/a	n/a	1	n/a	n/a	n/a	n/a	n/a	0	0	n/a	n/a	n/a
1973.288	1	80	n/a	n/a	1	n/a	n/a	n/a	n/a	n/a	0	0	n/a	n/a	n/a
1973.5046	1	31	n/a	n/a	1	n/a	n/a	n/a	n/a	n/a	2.3283e-10	0	n/a	n/a	n/a
1975.5212	1	40	n/a	n/a	1	n/a	n/a	n/a	n/a	n/a	0.1	0	n/a	n/a	n/a
1977.5376	1	10	1708.6	1708.6	1	0	0	1	0.7	0.23245	-0.1	0	0.8	0.87571	38
1979.2542	1	20	n/a	n/a	1	n/a	n/a	n/a	n/a	n/a	-2.3283e-10	0	n/a	n/a	n/a
1981.2402	1	80	n/a	n/a	1	n/a	n/a	n/a	n/a	n/a	0	0	n/a	n/a	n/a
1981.3402	1	80	n/a	n/a	1	n/a	n/a	n/a	n/a	n/a	0	0	n/a	n/a	n/a
1981.554	1	30	n/a	n/a	1	n/a	n/a	n/a	n/a	n/a	-0.1	0	n/a	n/a	n/a
1983.5706	1	40	n/a	n/a	1	n/a	n/a	n/a	n/a	n/a	0.1	0	n/a	n/a	n/a
1985.5872	1	10	2522.7	2522.7	1	0	0	1	0.8	0.22742	-2.3283e-10	0	0.3	0.0625	39
1988.1204	1	20	n/a	n/a	1	n/a	n/a	n/a	n/a	n/a	0.1	0	n/a	n/a	n/a
1989.3484	1	80	n/a	n/a	1	n/a	n/a	n/a	n/a	n/a	-0.1	0	n/a	n/a	n/a
1989.4484	1	80	n/a	n/a	1	n/a	n/a	n/a	n/a	n/a	0	0	n/a	n/a	n/a
1989.6536	1	31	n/a	n/a	1	n/a	n/a	n/a	n/a	n/a	2.3283e-10	0	n/a	n/a	n/a
1991.6702	1	40	n/a	n/a	1	n/a	n/a	n/a	n/a	n/a	0.1	0	n/a	n/a	n/a
1993.6866	1	10	951.1	951.1	1	0	0	1	0.7	0.82446	-0.2	0	0.3	0.5904	40
1994.6534	1	20	n/a	n/a	1	n/a	n/a	n/a	n/a	n/a	0.2	0	n/a	n/a	n/a
1996.1924	1	80	n/a	n/a	1	n/a	n/a	n/a	n/a	n/a	0	0	n/a	n/a	n/a
1996.2924	1	80	n/a	n/a	1	n/a	n/a	n/a	n/a	n/a	0	0	n/a	n/a	n/a
1996.5032	1	30	n/a	n/a	1	n/a	n/a	n/a	n/a	n/a	-0.1	0	n/a	n/a	n/a
1998.5198	1	40	n/a	n/a	1	n/a	n/a	n/a	n/a	n/a	0.1	0	n/a	n/a	n/a
