onset	duration	value	response	rt	good	TMSips	TMSppc	TMSvertex	a	bias	delta	fixed	p	pv	ronda
93.4502	1	10	6018.4	6018.4	1	0	0	1	0	0	0	0	0.1	0.1	1
99.4832	1	20	n/a	n/a	1	n/a	n/a	n/a	n/a	n/a	0	0	n/a	n/a	n/a
100.6692	1	80	n/a	n/a	1	n/a	n/a	n/a	n/a	n/a	0	0	n/a	n/a	n/a
100.7692	1	80	n/a	n/a	1	n/a	n/a	n/a	n/a	n/a	0	0	n/a	n/a	n/a
100.9832	1	30	n/a	n/a	1	n/a	n/a	n/a	n/a	n/a	0.1	0	n/a	n/a	n/a
102.9996	1	10	2964.8	2964.8	1	0	0	1	0	0	-0.2	0	0.1	0.1	2
105.9828	1	20	n/a	n/a	1	n/a	n/a	n/a	n/a	n/a	0.1	0	n/a	n/a	n/a
107.2428	1	80	n/a	n/a	1	n/a	n/a	n/a	n/a	n/a	-0.1	0	n/a	n/a	n/a
107.3428	1	80	n/a	n/a	1	n/a	n/a	n/a	n/a	n/a	0	0	n/a	n/a	n/a
107.5494	1	30	n/a	n/a	1	n/a	n/a	n/a	n/a	n/a	0.1	0	n/a	n/a	n/a
109.566	1	10	1118.4	1118.4	1	0	0	1	0	0	2.9104e-11	0	0.1	0.1	3
110.6992	1	20	n/a	n/a	1	n/a	n/a	n/a	n/a	n/a	-0.1	0	n/a	n/a	n/a
111.9192	1	80	n/a	n/a	1	n/a	n/a	n/a	n/a	n/a	0	0	n/a	n/a	n/a
112.0192	1	80	n/a	n/a	1	n/a	n/a	n/a	n/a	n/a	0	0	n/a	n/a	n/a
112.2324	1	30	n/a	n/a	1	n/a	n/a	n/a	n/a	n/a	-1.4552e-11	0	n/a	n/a	n/a
114.249	1	10	2403.2	2403.2	1	0	0	1	0	0	-2.9104e-11	0	0.5	0.5	4
116.6656	1	20	n/a	n/a	1	n/a	n/a	n/a	n/a	n/a	0.1	0	n/a	n/a	n/a
118.3046	1	80	n/a	n/a	1	n/a	n/a	n/a	n/a	n/a	0	0	n/a	n/a	n/a
118.4046	1	80	n/a	n/a	1	n/a	n/a	n/a	n/a	n/a	0	0	n/a	n/a	n/a
118.6154	1	30	n/a	n/a	1	n/a	n/a	n/a	n/a	n/a	-0.1	0	n/a	n/a	n/a
120.632	1	10	2756.1	2756.1	1	0	0	1	0	0	0.1	0	0.8	0.8	5
123.3984	1	20	n/a	n/a	1	n/a	n/a	n/a	n/a	n/a	-0.2	0	n/a	n/a	n/a
124.4734	1	80	n/a	n/a	1	n/a	n/a	n/a	n/a	n/a	0	0	n/a	n/a	n/a
124.5734	1	80	n/a	n/a	1	n/a	n/a	n/a	n/a	n/a	0	0	n/a	n/a	n/a
124.7818	1	30	n/a	n/a	1	n/a	n/a	n/a	n/a	n/a	0.2	0	n/a	n/a	n/a
126.7982	1	10	1453.6	1453.6	1	0	0	1	0	0	-0.2	0	0.7	0.7	6
128.2648	1	20	n/a	n/a	1	n/a	n/a	n/a	n/a	n/a	0.1	0	n/a	n/a	n/a
130.1048	1	80	n/a	n/a	1	n/a	n/a	n/a	n/a	n/a	-0.1	0	n/a	n/a	n/a
130.2048	1	80	n/a	n/a	1	n/a	n/a	n/a	n/a	n/a	0	0	n/a	n/a	n/a
130.4148	1	30	n/a	n/a	1	n/a	n/a	n/a	n/a	n/a	0.2	0	n/a	n/a	n/a
132.4312	1	10	1500.5	1500.5	1	0	0	1	0	0	-0.2	0	0.9	0.9	7
133.9478	1	20	n/a	n/a	1	n/a	n/a	n/a	n/a	n/a	0	0	n/a	n/a	n/a
135.1858	1	80	n/a	n/a	1	n/a	n/a	n/a	n/a	n/a	0	0	n/a	n/a	n/a
135.2858	1	80	n/a	n/a	1	n/a	n/a	n/a	n/a	n/a	0	0	n/a	n/a	n/a
135.4978	1	31	n/a	n/a	1	n/a	n/a	n/a	n/a	n/a	0.1	0	n/a	n/a	n/a
137.5142	1	10	2097.4	2097.4	1	0	0	1	0	0	-0.1	0	0.1	0.1	8
139.6142	1	20	n/a	n/a	1	n/a	n/a	n/a	n/a	n/a	0.1	0	n/a	n/a	n/a
140.7632	1	80	n/a	n/a	1	n/a	n/a	n/a	n/a	n/a	0	0	n/a	n/a	n/a
140.8632	1	80	n/a	n/a	1	n/a	n/a	n/a	n/a	n/a	0	0	n/a	n/a	n/a
141.0808	1	31	n/a	n/a	1	n/a	n/a	n/a	n/a	n/a	-5.8208e-11	0	n/a	n/a	n/a
143.0972	1	10	1122.2	1122.2	1	0	0	1	0	0	-0.2	0	0.9	0.9	9
144.2306	1	20	n/a	n/a	1	n/a	n/a	n/a	n/a	n/a	0.2	0	n/a	n/a	n/a
145.6686	1	80	n/a	n/a	1	n/a	n/a	n/a	n/a	n/a	-0.1	0	n/a	n/a	n/a
145.7686	1	80	n/a	n/a	1	n/a	n/a	n/a	n/a	n/a	0	0	n/a	n/a	n/a
145.9804	1	30	n/a	n/a	1	n/a	n/a	n/a	n/a	n/a	-5.8208e-11	0	n/a	n/a	n/a
147.997	1	10	1790.4	1790.4	1	0	0	1	0	0	2.9104e-11	0	0.9	0.9	10
149.7968	1	20	n/a	n/a	1	n/a	n/a	n/a	n/a	n/a	-0.1	0	n/a	n/a	n/a
151.396	1	80	n/a	n/a	1	n/a	n/a	n/a	n/a	n/a	0.2	0	n/a	n/a	n/a
151.4958	1	80	n/a	n/a	1	n/a	n/a	n/a	n/a	n/a	-0.2	0	n/a	n/a	n/a
151.7134	1	31	n/a	n/a	1	n/a	n/a	n/a	n/a	n/a	2.9104e-11	0	n/a	n/a	n/a
162.7462	1	10	5008.9	5008.9	1	0	0	1	0.6	0.55081	0.1	0	0.7	0.96875	11
167.7624	1	20	n/a	n/a	1	n/a	n/a	n/a	n/a	n/a	-0.2	0	n/a	n/a	n/a
169.3366	1	80	n/a	n/a	1	n/a	n/a	n/a	n/a	n/a	0.2	0	n/a	n/a	n/a
169.4364	1	80	n/a	n/a	1	n/a	n/a	n/a	n/a	n/a	-0.2	0	n/a	n/a	n/a
169.6458	1	30	n/a	n/a	1	n/a	n/a	n/a	n/a	n/a	0.2	0	n/a	n/a	n/a
171.6622	1	40	n/a	n/a	1	n/a	n/a	n/a	n/a	n/a	-0.2	0	n/a	n/a	n/a
173.6788	1	10	1436.1	1436.1	1	0	0	1	0.4	0.34688	0.1	0	0.6	0.56458	12
175.1288	1	20	n/a	n/a	1	n/a	n/a	n/a	n/a	n/a	0.1	0	n/a	n/a	n/a
176.3258	1	80	n/a	n/a	1	n/a	n/a	n/a	n/a	n/a	-0.1	0	n/a	n/a	n/a
176.4258	1	80	n/a	n/a	1	n/a	n/a	n/a	n/a	n/a	0	0	n/a	n/a	n/a
176.6286	1	31	n/a	n/a	1	n/a	n/a	n/a	n/a	n/a	-0.1	0	n/a	n/a	n/a
178.6452	1	40	n/a	n/a	1	n/a	n/a	n/a	n/a	n/a	0.1	0	n/a	n/a	n/a
180.6618	1	10	1364.9	1364.9	1	0	0	1	0.8	0.99392	-5.8208e-11	0	0.1	0.47566	13
182.045	1	20	n/a	n/a	1	n/a	n/a	n/a	n/a	n/a	5.8208e-11	0	n/a	n/a	n/a
183.264	1	80	n/a	n/a	1	n/a	n/a	n/a	n/a	n/a	0	0	n/a	n/a	n/a
183.364	1	80	n/a	n/a	1	n/a	n/a	n/a	n/a	n/a	0	0	n/a	n/a	n/a
183.5782	1	31	n/a	n/a	1	n/a	n/a	n/a	n/a	n/a	-0.1	0	n/a	n/a	n/a
185.5948	1	40	n/a	n/a	1	n/a	n/a	n/a	n/a	n/a	0.1	0	n/a	n/a	n/a
187.6114	1	10	1439.2	1439.2	1	0	0	1	0.4	0.77597	2.9104e-11	0	0.4	0.51732	14
189.0612	1	20	n/a	n/a	1	n/a	n/a	n/a	n/a	n/a	-0.1	0	n/a	n/a	n/a
190.4662	1	80	n/a	n/a	1	n/a	n/a	n/a	n/a	n/a	0	0	n/a	n/a	n/a
190.5662	1	80	n/a	n/a	1	n/a	n/a	n/a	n/a	n/a	0	0	n/a	n/a	n/a
190.7778	1	30	n/a	n/a	1	n/a	n/a	n/a	n/a	n/a	0	0	n/a	n/a	n/a
192.7944	1	40	n/a	n/a	1	n/a	n/a	n/a	n/a	n/a	0.1	0	n/a	n/a	n/a
194.8108	1	10	1135.5	1135.5	1	0	0	1	0.5	0.8083	-0.2	0	0.2	0.2083	15
195.9608	1	20	n/a	n/a	1	n/a	n/a	n/a	n/a	n/a	0.1	0	n/a	n/a	n/a
197.6688	1	80	n/a	n/a	1	n/a	n/a	n/a	n/a	n/a	0	0	n/a	n/a	n/a
197.7688	1	80	n/a	n/a	1	n/a	n/a	n/a	n/a	n/a	0	0	n/a	n/a	n/a
197.9774	1	31	n/a	n/a	1	n/a	n/a	n/a	n/a	n/a	2.9104e-11	0	n/a	n/a	n/a
199.994	1	40	n/a	n/a	1	n/a	n/a	n/a	n/a	n/a	0.1	0	n/a	n/a	n/a
202.0104	1	10	815.7	815.7	1	0	0	1	0.4	0.92205	-0.2	0	0.1	0.1147	16
202.8438	1	20	n/a	n/a	1	n/a	n/a	n/a	n/a	n/a	0.1	0	n/a	n/a	n/a
204.1788	1	80	n/a	n/a	1	n/a	n/a	n/a	n/a	n/a	0	0	n/a	n/a	n/a
204.2788	1	80	n/a	n/a	1	n/a	n/a	n/a	n/a	n/a	0	0	n/a	n/a	n/a
204.4936	1	31	n/a	n/a	1	n/a	n/a	n/a	n/a	n/a	-0.1	0	n/a	n/a	n/a
206.5102	1	40	n/a	n/a	1	n/a	n/a	n/a	n/a	n/a	0.1	0	n/a	n/a	n/a
208.5268	1	10	2395.3	2395.3	1	0	0	1	0.8	0.18843	0	0	0.7	0.25373	17
210.9266	1	20	n/a	n/a	1	n/a	n/a	n/a	n/a	n/a	-0.1	0	n/a	n/a	n/a
212.5346	1	80	n/a	n/a	1	n/a	n/a	n/a	n/a	n/a	0	0	n/a	n/a	n/a
212.6346	1	80	n/a	n/a	1	n/a	n/a	n/a	n/a	n/a	0	0	n/a	n/a	n/a
212.8432	1	30	n/a	n/a	1	n/a	n/a	n/a	n/a	n/a	0.1	0	n/a	n/a	n/a
214.8598	1	40	n/a	n/a	1	n/a	n/a	n/a	n/a	n/a	0	0	n/a	n/a	n/a
216.8762	1	10	1789.6	1789.6	1	0	0	1	0.5	0.76995	-0.1	0	0.4	0.56995	18
218.6762	1	20	n/a	n/a	1	n/a	n/a	n/a	n/a	n/a	0.1	0	n/a	n/a	n/a
220.5502	1	80	n/a	n/a	1	n/a	n/a	n/a	n/a	n/a	-0.1	0	n/a	n/a	n/a
220.6502	1	80	n/a	n/a	1	n/a	n/a	n/a	n/a	n/a	0	0	n/a	n/a	n/a
220.8594	1	31	n/a	n/a	1	n/a	n/a	n/a	n/a	n/a	0.1	0	n/a	n/a	n/a
222.8758	1	40	n/a	n/a	1	n/a	n/a	n/a	n/a	n/a	-0.2	0	n/a	n/a	n/a
224.8924	1	10	957.2	957.2	1	0	0	1	0.6	0.31518	2.9104e-11	0	0.6	0.47277	19
225.859	1	20	n/a	n/a	1	n/a	n/a	n/a	n/a	n/a	-2.9104e-11	0	n/a	n/a	n/a
227.455	1	80	n/a	n/a	1	n/a	n/a	n/a	n/a	n/a	0	0	n/a	n/a	n/a
227.555	1	80	n/a	n/a	1	n/a	n/a	n/a	n/a	n/a	0	0	n/a	n/a	n/a
227.759	1	30	n/a	n/a	1	n/a	n/a	n/a	n/a	n/a	0.1	0	n/a	n/a	n/a
229.7754	1	40	n/a	n/a	1	n/a	n/a	n/a	n/a	n/a	-0.1	0	n/a	n/a	n/a
231.792	1	10	1081.5	1081.5	1	0	0	1	0.4	0.87811	-2.9104e-11	0	0.1	0.085409	20
232.892	1	20	n/a	n/a	1	n/a	n/a	n/a	n/a	n/a	0.1	0	n/a	n/a	n/a
234.692	1	80	n/a	n/a	1	n/a	n/a	n/a	n/a	n/a	0	0	n/a	n/a	n/a
234.792	1	80	n/a	n/a	1	n/a	n/a	n/a	n/a	n/a	0	0	n/a	n/a	n/a
235.0086	1	31	n/a	n/a	1	n/a	n/a	n/a	n/a	n/a	-2.9104e-11	0	n/a	n/a	n/a
237.025	1	40	n/a	n/a	1	n/a	n/a	n/a	n/a	n/a	-0.1	0	n/a	n/a	n/a
248.0578	1	10	1167.5	1167.5	1	0	0	1	0	0	0.1	0	0.1	0.1	21
249.241	1	20	n/a	n/a	1	n/a	n/a	n/a	n/a	n/a	-0.1	0	n/a	n/a	n/a
251.195	1	80	n/a	n/a	1	n/a	n/a	n/a	n/a	n/a	0	0	n/a	n/a	n/a
251.295	1	80	n/a	n/a	1	n/a	n/a	n/a	n/a	n/a	0	0	n/a	n/a	n/a
251.5076	1	31	n/a	n/a	1	n/a	n/a	n/a	n/a	n/a	2.9104e-11	0	n/a	n/a	n/a
253.524	1	10	629	629	1	0	0	1	0	0	-0.1	0	0.1	0.1	22
254.1574	1	20	n/a	n/a	1	n/a	n/a	n/a	n/a	n/a	0.1	0	n/a	n/a	n/a
255.6804	1	80	n/a	n/a	1	n/a	n/a	n/a	n/a	n/a	0	0	n/a	n/a	n/a
255.7804	1	80	n/a	n/a	1	n/a	n/a	n/a	n/a	n/a	0	0	n/a	n/a	n/a
255.9906	1	31	n/a	n/a	1	n/a	n/a	n/a	n/a	n/a	5.8208e-11	0	n/a	n/a	n/a
258.0072	1	10	785.8	785.8	1	0	0	1	0	0	2.9104e-11	0	0.2	0.2	23
258.807	1	20	n/a	n/a	1	n/a	n/a	n/a	n/a	n/a	-0.1	0	n/a	n/a	n/a
259.9342	1	80	n/a	n/a	1	n/a	n/a	n/a	n/a	n/a	0.1	0	n/a	n/a	n/a
260.0342	1	80	n/a	n/a	1	n/a	n/a	n/a	n/a	n/a	0	0	n/a	n/a	n/a
260.2404	1	31	n/a	n/a	1	n/a	n/a	n/a	n/a	n/a	-8.7311e-11	0	n/a	n/a	n/a
262.2568	1	10	2423.9	2423.9	1	0	0	1	0	0	-0.2	0	0.1	0.1	24
264.69	1	20	n/a	n/a	1	n/a	n/a	n/a	n/a	n/a	5.8208e-11	0	n/a	n/a	n/a
266.447	1	80	n/a	n/a	1	n/a	n/a	n/a	n/a	n/a	0	0	n/a	n/a	n/a
266.547	1	80	n/a	n/a	1	n/a	n/a	n/a	n/a	n/a	0	0	n/a	n/a	n/a
266.7566	1	31	n/a	n/a	1	n/a	n/a	n/a	n/a	n/a	0.1	0	n/a	n/a	n/a
268.7732	1	10	1347.5	1347.5	1	0	0	1	0	0	5.8208e-11	0	0.3	0.3	25
270.1232	1	20	n/a	n/a	1	n/a	n/a	n/a	n/a	n/a	0.1	0	n/a	n/a	n/a
271.9862	1	80	n/a	n/a	1	n/a	n/a	n/a	n/a	n/a	0	0	n/a	n/a	n/a
272.0862	1	80	n/a	n/a	1	n/a	n/a	n/a	n/a	n/a	0	0	n/a	n/a	n/a
272.2896	1	31	n/a	n/a	1	n/a	n/a	n/a	n/a	n/a	-0.1	0	n/a	n/a	n/a
274.3062	1	10	710.4	710.4	1	0	0	1	0	0	5.8208e-11	0	0.8	0.8	26
275.0228	1	20	n/a	n/a	1	n/a	n/a	n/a	n/a	n/a	-1.1642e-10	0	n/a	n/a	n/a
276.7978	1	80	n/a	n/a	1	n/a	n/a	n/a	n/a	n/a	0	0	n/a	n/a	n/a
276.8978	1	80	n/a	n/a	1	n/a	n/a	n/a	n/a	n/a	0	0	n/a	n/a	n/a
277.106	1	31	n/a	n/a	1	n/a	n/a	n/a	n/a	n/a	5.8208e-11	0	n/a	n/a	n/a
279.1226	1	10	2901.9	2901.9	1	0	0	1	0	0	0	0	0.5	0.5	27
282.039	1	20	n/a	n/a	1	n/a	n/a	n/a	n/a	n/a	-0.1	0	n/a	n/a	n/a
283.799	1	80	n/a	n/a	1	n/a	n/a	n/a	n/a	n/a	0	0	n/a	n/a	n/a
283.899	1	80	n/a	n/a	1	n/a	n/a	n/a	n/a	n/a	0	0	n/a	n/a	n/a
284.1056	1	31	n/a	n/a	1	n/a	n/a	n/a	n/a	n/a	0	0	n/a	n/a	n/a
286.1222	1	10	1102.2	1102.2	1	0	0	1	0	0	0.1	0	0.9	0.9	28
287.2388	1	20	n/a	n/a	1	n/a	n/a	n/a	n/a	n/a	-1.1642e-10	0	n/a	n/a	n/a
289.1878	1	80	n/a	n/a	1	n/a	n/a	n/a	n/a	n/a	0	0	n/a	n/a	n/a
289.2878	1	80	n/a	n/a	1	n/a	n/a	n/a	n/a	n/a	0	0	n/a	n/a	n/a
289.5052	1	31	n/a	n/a	1	n/a	n/a	n/a	n/a	n/a	-0.2	0	n/a	n/a	n/a
291.5218	1	10	1366.4	1366.4	1	0	0	1	0	0	0.1	0	0.2	0.2	29
292.905	1	20	n/a	n/a	1	n/a	n/a	n/a	n/a	n/a	-0.1	0	n/a	n/a	n/a
294.284	1	80	n/a	n/a	1	n/a	n/a	n/a	n/a	n/a	0	0	n/a	n/a	n/a
294.384	1	80	n/a	n/a	1	n/a	n/a	n/a	n/a	n/a	0	0	n/a	n/a	n/a
294.5884	1	31	n/a	n/a	1	n/a	n/a	n/a	n/a	n/a	0.2	0	n/a	n/a	n/a
296.6048	1	10	571.2	571.2	1	0	0	1	0	0	-0.2	0	0.2	0.2	30
297.1882	1	20	n/a	n/a	1	n/a	n/a	n/a	n/a	n/a	0.1	0	n/a	n/a	n/a
298.9472	1	80	n/a	n/a	1	n/a	n/a	n/a	n/a	n/a	0	0	n/a	n/a	n/a
299.0472	1	80	n/a	n/a	1	n/a	n/a	n/a	n/a	n/a	0	0	n/a	n/a	n/a
299.2548	1	31	n/a	n/a	1	n/a	n/a	n/a	n/a	n/a	0.1	0	n/a	n/a	n/a
310.2874	1	10	1592.4	1592.4	1	0	0	1	0.6	0.12541	-0.1	0	0.6	0.18811	31
311.8872	1	20	n/a	n/a	1	n/a	n/a	n/a	n/a	n/a	-0.2	0	n/a	n/a	n/a
313.7464	1	80	n/a	n/a	1	n/a	n/a	n/a	n/a	n/a	0.2	0	n/a	n/a	n/a
313.8464	1	80	n/a	n/a	1	n/a	n/a	n/a	n/a	n/a	0	0	n/a	n/a	n/a
314.0538	1	30	n/a	n/a	1	n/a	n/a	n/a	n/a	n/a	-0.1	0	n/a	n/a	n/a
316.0704	1	40	n/a	n/a	1	n/a	n/a	n/a	n/a	n/a	5.8208e-11	0	n/a	n/a	n/a
318.087	1	10	1472.6	1472.6	1	0	0	1	0.6	0.8967	0.1	0	0.1	0.095054	32
319.5702	1	20	n/a	n/a	1	n/a	n/a	n/a	n/a	n/a	-0.1	0	n/a	n/a	n/a
321.4672	1	80	n/a	n/a	1	n/a	n/a	n/a	n/a	n/a	0	0	n/a	n/a	n/a
321.5672	1	80	n/a	n/a	1	n/a	n/a	n/a	n/a	n/a	0	0	n/a	n/a	n/a
321.77	1	30	n/a	n/a	1	n/a	n/a	n/a	n/a	n/a	5.8208e-11	0	n/a	n/a	n/a
323.7866	1	40	n/a	n/a	1	n/a	n/a	n/a	n/a	n/a	-1.1642e-10	0	n/a	n/a	n/a
325.8032	1	10	1436.2	1436.2	1	0	0	1	0.5	0.38119	5.8208e-11	0	0.5	0.38119	33
327.253	1	20	n/a	n/a	1	n/a	n/a	n/a	n/a	n/a	-0.1	0	n/a	n/a	n/a
329.058	1	80	n/a	n/a	1	n/a	n/a	n/a	n/a	n/a	0	0	n/a	n/a	n/a
329.158	1	80	n/a	n/a	1	n/a	n/a	n/a	n/a	n/a	0	0	n/a	n/a	n/a
329.3696	1	31	n/a	n/a	1	n/a	n/a	n/a	n/a	n/a	0.1	0	n/a	n/a	n/a
331.3862	1	40	n/a	n/a	1	n/a	n/a	n/a	n/a	n/a	5.8208e-11	0	n/a	n/a	n/a
333.4026	1	10	1004.6	1004.6	1	0	0	1	0.8	0.90741	-0.1	0	0.1	0.12963	34
334.4192	1	20	n/a	n/a	1	n/a	n/a	n/a	n/a	n/a	-0.1	0	n/a	n/a	n/a
336.3654	1	80	n/a	n/a	1	n/a	n/a	n/a	n/a	n/a	0.2	0	n/a	n/a	n/a
336.4652	1	80	n/a	n/a	1	n/a	n/a	n/a	n/a	n/a	-0.2	0	n/a	n/a	n/a
336.6692	1	31	n/a	n/a	1	n/a	n/a	n/a	n/a	n/a	0.2	0	n/a	n/a	n/a
338.6858	1	40	n/a	n/a	1	n/a	n/a	n/a	n/a	n/a	0	0	n/a	n/a	n/a
340.7022	1	10	1224.8	1224.8	1	0	0	1	0.5	0.79579	-0.1	0	0.2	0.19579	35
341.9356	1	20	n/a	n/a	1	n/a	n/a	n/a	n/a	n/a	0.1	0	n/a	n/a	n/a
343.2626	1	80	n/a	n/a	1	n/a	n/a	n/a	n/a	n/a	0	0	n/a	n/a	n/a
343.3626	1	80	n/a	n/a	1	n/a	n/a	n/a	n/a	n/a	0	0	n/a	n/a	n/a
343.5688	1	31	n/a	n/a	1	n/a	n/a	n/a	n/a	n/a	5.8208e-11	0	n/a	n/a	n/a
345.5854	1	40	n/a	n/a	1	n/a	n/a	n/a	n/a	n/a	5.8208e-11	0	n/a	n/a	n/a
347.6018	1	10	917	917	1	0	0	1	0.6	0.72298	-0.2	0	0.1	0.03125	36
348.5352	1	20	n/a	n/a	1	n/a	n/a	n/a	n/a	n/a	0.2	0	n/a	n/a	n/a
350.4502	1	80	n/a	n/a	1	n/a	n/a	n/a	n/a	n/a	-0.1	0	n/a	n/a	n/a
350.5502	1	80	n/a	n/a	1	n/a	n/a	n/a	n/a	n/a	0	0	n/a	n/a	n/a
350.7516	1	30	n/a	n/a	1	n/a	n/a	n/a	n/a	n/a	-0.1	0	n/a	n/a	n/a
352.7682	1	40	n/a	n/a	1	n/a	n/a	n/a	n/a	n/a	0.1	0	n/a	n/a	n/a
354.7848	1	10	1494	1494	1	0	0	1	0.4	0.80004	0	0	0.5	0.70002	37
356.2846	1	20	n/a	n/a	1	n/a	n/a	n/a	n/a	n/a	-0.1	0	n/a	n/a	n/a
358.1746	1	80	n/a	n/a	1	n/a	n/a	n/a	n/a	n/a	-0.1	0	n/a	n/a	n/a
358.2746	1	80	n/a	n/a	1	n/a	n/a	n/a	n/a	n/a	0	0	n/a	n/a	n/a
358.4846	1	31	n/a	n/a	1	n/a	n/a	n/a	n/a	n/a	0.2	0	n/a	n/a	n/a
360.501	1	40	n/a	n/a	1	n/a	n/a	n/a	n/a	n/a	-0.1	0	n/a	n/a	n/a
362.5176	1	10	912.9	912.9	1	0	0	1	0.7	0.00068526	0	0	0.1	0.041667	38
363.4342	1	20	n/a	n/a	1	n/a	n/a	n/a	n/a	n/a	5.8208e-11	0	n/a	n/a	n/a
364.5692	1	80	n/a	n/a	1	n/a	n/a	n/a	n/a	n/a	0	0	n/a	n/a	n/a
364.6692	1	80	n/a	n/a	1	n/a	n/a	n/a	n/a	n/a	0	0	n/a	n/a	n/a
364.8842	1	31	n/a	n/a	1	n/a	n/a	n/a	n/a	n/a	0.1	0	n/a	n/a	n/a
366.9008	1	40	n/a	n/a	1	n/a	n/a	n/a	n/a	n/a	0	0	n/a	n/a	n/a
368.9172	1	10	2113.2	2113.2	1	0	0	1	0.7	0.45099	-0.1	0	0.4	0.052316	39
371.0338	1	20	n/a	n/a	1	n/a	n/a	n/a	n/a	n/a	-1.1642e-10	0	n/a	n/a	n/a
373.0258	1	80	n/a	n/a	1	n/a	n/a	n/a	n/a	n/a	0	0	n/a	n/a	n/a
373.1258	1	80	n/a	n/a	1	n/a	n/a	n/a	n/a	n/a	0	0	n/a	n/a	n/a
373.3336	1	31	n/a	n/a	1	n/a	n/a	n/a	n/a	n/a	-0.1	0	n/a	n/a	n/a
375.3502	1	40	n/a	n/a	1	n/a	n/a	n/a	n/a	n/a	0.1	0	n/a	n/a	n/a
377.3668	1	10	2959.4	2959.4	1	0	0	1	0.7	0.64858	-1.1642e-10	0	0.7	0.95833	40
380.3332	1	20	n/a	n/a	1	n/a	n/a	n/a	n/a	n/a	-0.1	0	n/a	n/a	n/a
381.9982	1	80	n/a	n/a	1	n/a	n/a	n/a	n/a	n/a	0	0	n/a	n/a	n/a
382.0982	1	80	n/a	n/a	1	n/a	n/a	n/a	n/a	n/a	0	0	n/a	n/a	n/a
382.2998	1	30	n/a	n/a	1	n/a	n/a	n/a	n/a	n/a	0.1	0	n/a	n/a	n/a
384.3164	1	40	n/a	n/a	1	n/a	n/a	n/a	n/a	n/a	5.8208e-11	0	n/a	n/a	n/a
428.897	1	10	1252	1252	1	0	0	1	0	0	-0.3	0	0.1	0.1	1
430.1636	1	20	n/a	n/a	1	n/a	n/a	n/a	n/a	n/a	0	0	n/a	n/a	n/a
431.2896	1	80	n/a	n/a	1	n/a	n/a	n/a	n/a	n/a	0	0	n/a	n/a	n/a
431.3896	1	80	n/a	n/a	1	n/a	n/a	n/a	n/a	n/a	0	0	n/a	n/a	n/a
431.5968	1	31	n/a	n/a	1	n/a	n/a	n/a	n/a	n/a	5.8208e-11	0	n/a	n/a	n/a
433.6134	1	10	775.5	775.5	1	0	0	1	0	0	5.8208e-11	0	0.2	0.2	2
434.3968	1	20	n/a	n/a	1	n/a	n/a	n/a	n/a	n/a	0.1	0	n/a	n/a	n/a
436.2458	1	80	n/a	n/a	1	n/a	n/a	n/a	n/a	n/a	0	0	n/a	n/a	n/a
436.3458	1	80	n/a	n/a	1	n/a	n/a	n/a	n/a	n/a	0	0	n/a	n/a	n/a
436.5632	1	31	n/a	n/a	1	n/a	n/a	n/a	n/a	n/a	-0.1	0	n/a	n/a	n/a
438.5798	1	10	1457	1457	1	0	0	1	0	0	0	0	0.1	0.1	3
440.0464	1	20	n/a	n/a	1	n/a	n/a	n/a	n/a	n/a	5.8208e-11	0	n/a	n/a	n/a
441.2154	1	80	n/a	n/a	1	n/a	n/a	n/a	n/a	n/a	0	0	n/a	n/a	n/a
441.3154	1	80	n/a	n/a	1	n/a	n/a	n/a	n/a	n/a	0	0	n/a	n/a	n/a
441.5296	1	31	n/a	n/a	1	n/a	n/a	n/a	n/a	n/a	-1.1642e-10	0	n/a	n/a	n/a
443.5462	1	10	1082.5	1082.5	1	0	0	1	0	0	5.8208e-11	0	0.1	0.1	4
444.6462	1	20	n/a	n/a	1	n/a	n/a	n/a	n/a	n/a	0.1	0	n/a	n/a	n/a
446.2362	1	80	n/a	n/a	1	n/a	n/a	n/a	n/a	n/a	0	0	n/a	n/a	n/a
446.3362	1	80	n/a	n/a	1	n/a	n/a	n/a	n/a	n/a	0	0	n/a	n/a	n/a
446.546	1	31	n/a	n/a	1	n/a	n/a	n/a	n/a	n/a	-0.1	0	n/a	n/a	n/a
448.5626	1	10	1442	1442	1	0	0	1	0	0	0	0	0.7	0.7	5
450.0124	1	20	n/a	n/a	1	n/a	n/a	n/a	n/a	n/a	-0.1	0	n/a	n/a	n/a
451.6944	1	80	n/a	n/a	1	n/a	n/a	n/a	n/a	n/a	0	0	n/a	n/a	n/a
451.7944	1	80	n/a	n/a	1	n/a	n/a	n/a	n/a	n/a	0	0	n/a	n/a	n/a
452.0124	1	30	n/a	n/a	1	n/a	n/a	n/a	n/a	n/a	0.1	0	n/a	n/a	n/a
454.0288	1	10	823.6	823.6	1	0	0	1	0	0	-0.1	0	0.3	0.3	6
454.8622	1	20	n/a	n/a	1	n/a	n/a	n/a	n/a	n/a	0.1	0	n/a	n/a	n/a
456.0782	1	80	n/a	n/a	1	n/a	n/a	n/a	n/a	n/a	0	0	n/a	n/a	n/a
456.1782	1	80	n/a	n/a	1	n/a	n/a	n/a	n/a	n/a	0	0	n/a	n/a	n/a
456.3954	1	31	n/a	n/a	1	n/a	n/a	n/a	n/a	n/a	-0.1	0	n/a	n/a	n/a
458.412	1	10	1320.4	1320.4	1	0	0	1	0	0	0.1	0	0.4	0.4	7
459.7452	1	20	n/a	n/a	1	n/a	n/a	n/a	n/a	n/a	-0.1	0	n/a	n/a	n/a
461.3142	1	80	n/a	n/a	1	n/a	n/a	n/a	n/a	n/a	0	0	n/a	n/a	n/a
461.4142	1	80	n/a	n/a	1	n/a	n/a	n/a	n/a	n/a	0	0	n/a	n/a	n/a
461.6284	1	31	n/a	n/a	1	n/a	n/a	n/a	n/a	n/a	-5.8208e-11	0	n/a	n/a	n/a
463.645	1	10	1255.2	1255.2	1	0	0	1	0	0	0	0	0.9	0.9	8
464.9116	1	20	n/a	n/a	1	n/a	n/a	n/a	n/a	n/a	0	0	n/a	n/a	n/a
466.5566	1	80	n/a	n/a	1	n/a	n/a	n/a	n/a	n/a	0	0	n/a	n/a	n/a
466.6566	1	80	n/a	n/a	1	n/a	n/a	n/a	n/a	n/a	0	0	n/a	n/a	n/a
466.8614	1	31	n/a	n/a	1	n/a	n/a	n/a	n/a	n/a	-0.1	0	n/a	n/a	n/a
468.878	1	10	2518.1	2518.1	1	0	0	1	0	0	0.1	0	0.7	0.7	9
471.4112	1	20	n/a	n/a	1	n/a	n/a	n/a	n/a	n/a	5.8208e-11	0	n/a	n/a	n/a
473.3252	1	80	n/a	n/a	1	n/a	n/a	n/a	n/a	n/a	0	0	n/a	n/a	n/a
473.4252	1	80	n/a	n/a	1	n/a	n/a	n/a	n/a	n/a	0	0	n/a	n/a	n/a
473.6278	1	31	n/a	n/a	1	n/a	n/a	n/a	n/a	n/a	0.1	0	n/a	n/a	n/a
475.6442	1	10	1799.7	1799.7	1	0	0	1	0	0	-0.2	0	0.5	0.5	10
477.4608	1	20	n/a	n/a	1	n/a	n/a	n/a	n/a	n/a	-1.1642e-10	0	n/a	n/a	n/a
479.2618	1	80	n/a	n/a	1	n/a	n/a	n/a	n/a	n/a	0	0	n/a	n/a	n/a
479.3618	1	80	n/a	n/a	1	n/a	n/a	n/a	n/a	n/a	0	0	n/a	n/a	n/a
479.5774	1	31	n/a	n/a	1	n/a	n/a	n/a	n/a	n/a	0.1	0	n/a	n/a	n/a
490.61	1	10	2673.6	2673.6	1	0	0	1	0.5	0.84095	-0.1	0	0.2	0.24095	11
493.2932	1	20	n/a	n/a	1	n/a	n/a	n/a	n/a	n/a	5.8208e-11	0	n/a	n/a	n/a
494.4612	1	80	n/a	n/a	1	n/a	n/a	n/a	n/a	n/a	-0.1	0	n/a	n/a	n/a
494.5612	1	80	n/a	n/a	1	n/a	n/a	n/a	n/a	n/a	0	0	n/a	n/a	n/a
494.7764	1	30	n/a	n/a	1	n/a	n/a	n/a	n/a	n/a	5.8208e-11	0	n/a	n/a	n/a
496.793	1	40	n/a	n/a	1	n/a	n/a	n/a	n/a	n/a	0.1	0	n/a	n/a	n/a
498.8096	1	10	1865.9	1865.9	1	0	0	1	0.5	0.4094	0	0	0.5	0.4094	12
500.6928	1	20	n/a	n/a	1	n/a	n/a	n/a	n/a	n/a	-5.8208e-11	0	n/a	n/a	n/a
501.9218	1	80	n/a	n/a	1	n/a	n/a	n/a	n/a	n/a	0	0	n/a	n/a	n/a
502.0218	1	80	n/a	n/a	1	n/a	n/a	n/a	n/a	n/a	0	0	n/a	n/a	n/a
502.226	1	30	n/a	n/a	1	n/a	n/a	n/a	n/a	n/a	-0.1	0	n/a	n/a	n/a
504.2426	1	40	n/a	n/a	1	n/a	n/a	n/a	n/a	n/a	0.1	0	n/a	n/a	n/a
506.2592	1	10	2736.1	2736.1	1	0	0	1	0.8	0.39052	5.8208e-11	0	0.6	0.5621	13
509.009	1	20	n/a	n/a	1	n/a	n/a	n/a	n/a	n/a	-5.8208e-11	0	n/a	n/a	n/a
510.664	1	80	n/a	n/a	1	n/a	n/a	n/a	n/a	n/a	-0.1	0	n/a	n/a	n/a
510.764	1	80	n/a	n/a	1	n/a	n/a	n/a	n/a	n/a	0	0	n/a	n/a	n/a
510.9756	1	31	n/a	n/a	1	n/a	n/a	n/a	n/a	n/a	0.1	0	n/a	n/a	n/a
512.992	1	40	n/a	n/a	1	n/a	n/a	n/a	n/a	n/a	-0.1	0	n/a	n/a	n/a
515.0086	1	10	1602.5	1602.5	1	0	0	1	0.8	0.90565	0	0	0.1	0.12259	14
516.6252	1	20	n/a	n/a	1	n/a	n/a	n/a	n/a	n/a	-5.8208e-11	0	n/a	n/a	n/a
518.2292	1	80	n/a	n/a	1	n/a	n/a	n/a	n/a	n/a	0	0	n/a	n/a	n/a
518.3292	1	80	n/a	n/a	1	n/a	n/a	n/a	n/a	n/a	0	0	n/a	n/a	n/a
518.5418	1	30	n/a	n/a	1	n/a	n/a	n/a	n/a	n/a	0.1	0	n/a	n/a	n/a
520.5582	1	40	n/a	n/a	1	n/a	n/a	n/a	n/a	n/a	-0.2	0	n/a	n/a	n/a
522.5748	1	10	3108.1	3108.1	1	0	0	1	0.7	0.8941	0.1	0	0.1	0.086226	15
525.6914	1	20	n/a	n/a	1	n/a	n/a	n/a	n/a	n/a	0.1	0	n/a	n/a	n/a
527.2394	1	80	n/a	n/a	1	n/a	n/a	n/a	n/a	n/a	-0.1	0	n/a	n/a	n/a
527.3394	1	80	n/a	n/a	1	n/a	n/a	n/a	n/a	n/a	0	0	n/a	n/a	n/a
527.5412	1	31	n/a	n/a	1	n/a	n/a	n/a	n/a	n/a	-1.1642e-10	0	n/a	n/a	n/a
529.5578	1	40	n/a	n/a	1	n/a	n/a	n/a	n/a	n/a	1.1642e-10	0	n/a	n/a	n/a
531.5742	1	10	1244.4	1244.4	1	0	0	1	0.7	0.14049	-0.2	0	0.1	0.041667	16
532.8242	1	20	n/a	n/a	1	n/a	n/a	n/a	n/a	n/a	0.1	0	n/a	n/a	n/a
534.1762	1	80	n/a	n/a	1	n/a	n/a	n/a	n/a	n/a	0	0	n/a	n/a	n/a
534.2762	1	80	n/a	n/a	1	n/a	n/a	n/a	n/a	n/a	0	0	n/a	n/a	n/a
534.4908	1	31	n/a	n/a	1	n/a	n/a	n/a	n/a	n/a	1.1642e-10	0	n/a	n/a	n/a
536.5074	1	40	n/a	n/a	1	n/a	n/a	n/a	n/a	n/a	0.1	0	n/a	n/a	n/a
538.524	1	10	1398.6	1398.6	1	0	0	1	0.4	0.99568	0	0	0.1	0.16379	17
539.9404	1	20	n/a	n/a	1	n/a	n/a	n/a	n/a	n/a	-0.2	0	n/a	n/a	n/a
541.2394	1	80	n/a	n/a	1	n/a	n/a	n/a	n/a	n/a	0	0	n/a	n/a	n/a
541.3394	1	80	n/a	n/a	1	n/a	n/a	n/a	n/a	n/a	0	0	n/a	n/a	n/a
541.557	1	31	n/a	n/a	1	n/a	n/a	n/a	n/a	n/a	0.1	0	n/a	n/a	n/a
543.5736	1	40	n/a	n/a	1	n/a	n/a	n/a	n/a	n/a	-1.1642e-10	0	n/a	n/a	n/a
545.5902	1	10	1964.3	1964.3	1	0	0	1	0.4	0.98035	0.1	0	0.2	0.32023	18
547.5566	1	20	n/a	n/a	1	n/a	n/a	n/a	n/a	n/a	-0.2	0	n/a	n/a	n/a
548.8926	1	80	n/a	n/a	1	n/a	n/a	n/a	n/a	n/a	0	0	n/a	n/a	n/a
548.9926	1	80	n/a	n/a	1	n/a	n/a	n/a	n/a	n/a	0	0	n/a	n/a	n/a
549.2066	1	30	n/a	n/a	1	n/a	n/a	n/a	n/a	n/a	0.1	0	n/a	n/a	n/a
551.2232	1	40	n/a	n/a	1	n/a	n/a	n/a	n/a	n/a	0	0	n/a	n/a	n/a
553.2396	1	10	2026.5	2026.5	1	0	0	1	0.4	0.18842	-0.1	0	0.8	0.79228	19
555.2728	1	20	n/a	n/a	1	n/a	n/a	n/a	n/a	n/a	1.1642e-10	0	n/a	n/a	n/a
557.2168	1	80	n/a	n/a	1	n/a	n/a	n/a	n/a	n/a	-0.1	0	n/a	n/a	n/a
557.3168	1	80	n/a	n/a	1	n/a	n/a	n/a	n/a	n/a	0	0	n/a	n/a	n/a
557.5228	1	30	n/a	n/a	1	n/a	n/a	n/a	n/a	n/a	0.2	0	n/a	n/a	n/a
559.5394	1	40	n/a	n/a	1	n/a	n/a	n/a	n/a	n/a	0	0	n/a	n/a	n/a
561.5558	1	10	1662.2	1662.2	1	0	0	1	0.5	0.55573	-0.1	0	0.3	0.15573	20
563.2224	1	20	n/a	n/a	1	n/a	n/a	n/a	n/a	n/a	0	0	n/a	n/a	n/a
564.7704	1	80	n/a	n/a	1	n/a	n/a	n/a	n/a	n/a	0	0	n/a	n/a	n/a
564.8704	1	80	n/a	n/a	1	n/a	n/a	n/a	n/a	n/a	0	0	n/a	n/a	n/a
565.0724	1	31	n/a	n/a	1	n/a	n/a	n/a	n/a	n/a	0.1	0	n/a	n/a	n/a
567.0888	1	40	n/a	n/a	1	n/a	n/a	n/a	n/a	n/a	-0.2	0	n/a	n/a	n/a
578.1216	1	10	1304.1	1304.1	1	0	0	1	0	0	0.1	0	0.9	0.9	21
579.4382	1	20	n/a	n/a	1	n/a	n/a	n/a	n/a	n/a	0	0	n/a	n/a	n/a
581.3752	1	80	n/a	n/a	1	n/a	n/a	n/a	n/a	n/a	0	0	n/a	n/a	n/a
581.4752	1	80	n/a	n/a	1	n/a	n/a	n/a	n/a	n/a	0	0	n/a	n/a	n/a
581.688	1	31	n/a	n/a	1	n/a	n/a	n/a	n/a	n/a	-0.1	0	n/a	n/a	n/a
583.7046	1	10	1257	1257	1	0	0	1	0	0	0.1	0	0.7	0.7	22
584.9712	1	20	n/a	n/a	1	n/a	n/a	n/a	n/a	n/a	0	0	n/a	n/a	n/a
586.1972	1	80	n/a	n/a	1	n/a	n/a	n/a	n/a	n/a	0	0	n/a	n/a	n/a
586.2972	1	80	n/a	n/a	1	n/a	n/a	n/a	n/a	n/a	0	0	n/a	n/a	n/a
586.5044	1	31	n/a	n/a	1	n/a	n/a	n/a	n/a	n/a	-0.1	0	n/a	n/a	n/a
588.521	1	10	1288.5	1288.5	1	0	0	1	0	0	0.1	0	0.5	0.5	23
589.8208	1	20	n/a	n/a	1	n/a	n/a	n/a	n/a	n/a	-0.1	0	n/a	n/a	n/a
590.9218	1	80	n/a	n/a	1	n/a	n/a	n/a	n/a	n/a	-0.1	0	n/a	n/a	n/a
591.0218	1	80	n/a	n/a	1	n/a	n/a	n/a	n/a	n/a	0	0	n/a	n/a	n/a
591.2374	1	31	n/a	n/a	1	n/a	n/a	n/a	n/a	n/a	0.1	0	n/a	n/a	n/a
593.254	1	10	2107.3	2107.3	1	0	0	1	0	0	0	0	0.4	0.4	24
595.3706	1	20	n/a	n/a	1	n/a	n/a	n/a	n/a	n/a	0.1	0	n/a	n/a	n/a
597.0596	1	80	n/a	n/a	1	n/a	n/a	n/a	n/a	n/a	-0.1	0	n/a	n/a	n/a
597.1596	1	80	n/a	n/a	1	n/a	n/a	n/a	n/a	n/a	0	0	n/a	n/a	n/a
597.3704	1	31	n/a	n/a	1	n/a	n/a	n/a	n/a	n/a	0	0	n/a	n/a	n/a
599.387	1	10	1078.2	1078.2	1	0	0	1	0	0	0	0	0.2	0.2	25
600.4702	1	20	n/a	n/a	1	n/a	n/a	n/a	n/a	n/a	-0.1	0	n/a	n/a	n/a
602.1262	1	80	n/a	n/a	1	n/a	n/a	n/a	n/a	n/a	0	0	n/a	n/a	n/a
602.2262	1	80	n/a	n/a	1	n/a	n/a	n/a	n/a	n/a	0	0	n/a	n/a	n/a
602.4368	1	31	n/a	n/a	1	n/a	n/a	n/a	n/a	n/a	0.1	0	n/a	n/a	n/a
604.4534	1	10	1979.7	1979.7	1	0	0	1	0	0	-1.1642e-10	0	0.3	0.3	26
606.4366	1	20	n/a	n/a	1	n/a	n/a	n/a	n/a	n/a	0	0	n/a	n/a	n/a
607.8076	1	80	n/a	n/a	1	n/a	n/a	n/a	n/a	n/a	0	0	n/a	n/a	n/a
607.9076	1	80	n/a	n/a	1	n/a	n/a	n/a	n/a	n/a	0	0	n/a	n/a	n/a
608.1198	1	30	n/a	n/a	1	n/a	n/a	n/a	n/a	n/a	1.1642e-10	0	n/a	n/a	n/a
610.1364	1	10	840.6	840.6	1	0	0	1	0	0	-1.1642e-10	0	0.1	0.1	27
610.9862	1	20	n/a	n/a	1	n/a	n/a	n/a	n/a	n/a	-0.1	0	n/a	n/a	n/a
612.4402	1	80	n/a	n/a	1	n/a	n/a	n/a	n/a	n/a	-0.1	0	n/a	n/a	n/a
612.5402	1	80	n/a	n/a	1	n/a	n/a	n/a	n/a	n/a	0	0	n/a	n/a	n/a
612.7528	1	31	n/a	n/a	1	n/a	n/a	n/a	n/a	n/a	0.1	0	n/a	n/a	n/a
614.7694	1	10	1999.4	1999.4	1	0	0	1	0	0	0	0	0.7	0.7	28
616.786	1	20	n/a	n/a	1	n/a	n/a	n/a	n/a	n/a	0.1	0	n/a	n/a	n/a
618.047	1	80	n/a	n/a	1	n/a	n/a	n/a	n/a	n/a	0	0	n/a	n/a	n/a
618.147	1	80	n/a	n/a	1	n/a	n/a	n/a	n/a	n/a	0	0	n/a	n/a	n/a
618.3524	1	31	n/a	n/a	1	n/a	n/a	n/a	n/a	n/a	-0.2	0	n/a	n/a	n/a
620.369	1	10	1519.6	1519.6	1	0	0	1	0	0	0	0	0.3	0.3	29
621.9022	1	20	n/a	n/a	1	n/a	n/a	n/a	n/a	n/a	-1.1642e-10	0	n/a	n/a	n/a
623.3742	1	80	n/a	n/a	1	n/a	n/a	n/a	n/a	n/a	0	0	n/a	n/a	n/a
623.4742	1	80	n/a	n/a	1	n/a	n/a	n/a	n/a	n/a	0	0	n/a	n/a	n/a
623.6856	1	30	n/a	n/a	1	n/a	n/a	n/a	n/a	n/a	0.2	0	n/a	n/a	n/a
625.702	1	10	874.5	874.5	1	0	0	1	0	0	-0.2	0	0.8	0.8	30
626.5854	1	20	n/a	n/a	1	n/a	n/a	n/a	n/a	n/a	0.1	0	n/a	n/a	n/a
627.9474	1	80	n/a	n/a	1	n/a	n/a	n/a	n/a	n/a	0	0	n/a	n/a	n/a
628.0474	1	80	n/a	n/a	1	n/a	n/a	n/a	n/a	n/a	0	0	n/a	n/a	n/a
628.252	1	31	n/a	n/a	1	n/a	n/a	n/a	n/a	n/a	0	0	n/a	n/a	n/a
639.2846	1	10	2107.6	2107.6	1	0	0	1	0.6	0.79139	-0.1	0	0.4	0.68709	31
641.4012	1	20	n/a	n/a	1	n/a	n/a	n/a	n/a	n/a	0.1	0	n/a	n/a	n/a
643.2122	1	80	n/a	n/a	1	n/a	n/a	n/a	n/a	n/a	-0.1	0	n/a	n/a	n/a
643.3122	1	80	n/a	n/a	1	n/a	n/a	n/a	n/a	n/a	0	0	n/a	n/a	n/a
643.5176	1	30	n/a	n/a	1	n/a	n/a	n/a	n/a	n/a	-0.1	0	n/a	n/a	n/a
645.5342	1	40	n/a	n/a	1	n/a	n/a	n/a	n/a	n/a	0.1	0	n/a	n/a	n/a
647.5508	1	10	753.3	753.3	1	0	0	1	0.4	0.59232	1.1642e-10	0	0.2	0.061544	32
648.3174	1	20	n/a	n/a	1	n/a	n/a	n/a	n/a	n/a	0	0	n/a	n/a	n/a
649.9194	1	80	n/a	n/a	1	n/a	n/a	n/a	n/a	n/a	0	0	n/a	n/a	n/a
650.0194	1	80	n/a	n/a	1	n/a	n/a	n/a	n/a	n/a	0	0	n/a	n/a	n/a
650.234	1	31	n/a	n/a	1	n/a	n/a	n/a	n/a	n/a	0	0	n/a	n/a	n/a
652.2504	1	40	n/a	n/a	1	n/a	n/a	n/a	n/a	n/a	-0.1	0	n/a	n/a	n/a
654.267	1	10	868.9	868.9	1	0	0	1	0.4	0.10363	0	0	0.8	0.73575	33
655.1504	1	20	n/a	n/a	1	n/a	n/a	n/a	n/a	n/a	0.1	0	n/a	n/a	n/a
656.3034	1	80	n/a	n/a	1	n/a	n/a	n/a	n/a	n/a	0	0	n/a	n/a	n/a
656.4034	1	80	n/a	n/a	1	n/a	n/a	n/a	n/a	n/a	0	0	n/a	n/a	n/a
656.6168	1	31	n/a	n/a	1	n/a	n/a	n/a	n/a	n/a	-0.2	0	n/a	n/a	n/a
658.6334	1	40	n/a	n/a	1	n/a	n/a	n/a	n/a	n/a	0.1	0	n/a	n/a	n/a
660.65	1	10	3605.7	3605.7	1	0	0	1	0.8	0.19863	0	0	0.6	0.0625	34
664.2664	1	20	n/a	n/a	1	n/a	n/a	n/a	n/a	n/a	0	0	n/a	n/a	n/a
665.4114	1	80	n/a	n/a	1	n/a	n/a	n/a	n/a	n/a	-0.1	0	n/a	n/a	n/a
665.5114	1	80	n/a	n/a	1	n/a	n/a	n/a	n/a	n/a	0	0	n/a	n/a	n/a
665.7164	1	30	n/a	n/a	1	n/a	n/a	n/a	n/a	n/a	0.1	0	n/a	n/a	n/a
667.733	1	40	n/a	n/a	1	n/a	n/a	n/a	n/a	n/a	0.1	0	n/a	n/a	n/a
669.7494	1	10	2666	2666	1	0	0	1	0.7	0.05504	-0.2	0	0.6	0.041667	35
672.4326	1	20	n/a	n/a	1	n/a	n/a	n/a	n/a	n/a	-1.1642e-10	0	n/a	n/a	n/a
673.5756	1	80	n/a	n/a	1	n/a	n/a	n/a	n/a	n/a	0	0	n/a	n/a	n/a
673.6756	1	80	n/a	n/a	1	n/a	n/a	n/a	n/a	n/a	0	0	n/a	n/a	n/a
673.8826	1	30	n/a	n/a	1	n/a	n/a	n/a	n/a	n/a	0.1	0	n/a	n/a	n/a
675.899	1	40	n/a	n/a	1	n/a	n/a	n/a	n/a	n/a	-0.1	0	n/a	n/a	n/a
677.9156	1	10	899.7	899.7	1	0	0	1	0.4	0.3091	0	0	0.6	0.5394	36
678.8322	1	20	n/a	n/a	1	n/a	n/a	n/a	n/a	n/a	0	0	n/a	n/a	n/a
680.8002	1	80	n/a	n/a	1	n/a	n/a	n/a	n/a	n/a	0	0	n/a	n/a	n/a
680.9002	1	80	n/a	n/a	1	n/a	n/a	n/a	n/a	n/a	0	0	n/a	n/a	n/a
681.1154	1	30	n/a	n/a	1	n/a	n/a	n/a	n/a	n/a	1.1642e-10	0	n/a	n/a	n/a
683.132	1	40	n/a	n/a	1	n/a	n/a	n/a	n/a	n/a	-1.1642e-10	0	n/a	n/a	n/a
685.1486	1	10	866.7	866.7	1	0	0	1	0.6	0.92522	0.1	0	0.3	0.63783	37
686.0318	1	20	n/a	n/a	1	n/a	n/a	n/a	n/a	n/a	-0.1	0	n/a	n/a	n/a
688.0088	1	80	n/a	n/a	1	n/a	n/a	n/a	n/a	n/a	0	0	n/a	n/a	n/a
688.1088	1	80	n/a	n/a	1	n/a	n/a	n/a	n/a	n/a	0	0	n/a	n/a	n/a
688.315	1	30	n/a	n/a	1	n/a	n/a	n/a	n/a	n/a	-1.1642e-10	0	n/a	n/a	n/a
690.3316	1	40	n/a	n/a	1	n/a	n/a	n/a	n/a	n/a	0	0	n/a	n/a	n/a
692.3482	1	10	1042.9	1042.9	1	0	0	1	0.6	0.19435	0.1	0	0.5	0.041521	38
693.398	1	20	n/a	n/a	1	n/a	n/a	n/a	n/a	n/a	-0.2	0	n/a	n/a	n/a
695.244	1	80	n/a	n/a	1	n/a	n/a	n/a	n/a	n/a	0	0	n/a	n/a	n/a
695.344	1	80	n/a	n/a	1	n/a	n/a	n/a	n/a	n/a	0	0	n/a	n/a	n/a
695.548	1	30	n/a	n/a	1	n/a	n/a	n/a	n/a	n/a	0.2	0	n/a	n/a	n/a
697.5644	1	40	n/a	n/a	1	n/a	n/a	n/a	n/a	n/a	-0.2	0	n/a	n/a	n/a
699.581	1	10	657.8	657.8	1	0	0	1	0.5	0.49933	0	0	0.1	0.025	39
700.2476	1	20	n/a	n/a	1	n/a	n/a	n/a	n/a	n/a	0	0	n/a	n/a	n/a
701.6736	1	80	n/a	n/a	1	n/a	n/a	n/a	n/a	n/a	0	0	n/a	n/a	n/a
701.7736	1	80	n/a	n/a	1	n/a	n/a	n/a	n/a	n/a	0	0	n/a	n/a	n/a
701.9808	1	30	n/a	n/a	1	n/a	n/a	n/a	n/a	n/a	1.1642e-10	0	n/a	n/a	n/a
703.9974	1	40	n/a	n/a	1	n/a	n/a	n/a	n/a	n/a	-1.1642e-10	0	n/a	n/a	n/a
706.014	1	10	736.8	736.8	1	0	0	1	0.8	0.6546	0.1	0	0.3	0.11842	40
706.764	1	20	n/a	n/a	1	n/a	n/a	n/a	n/a	n/a	0	0	n/a	n/a	n/a
708.664	1	80	n/a	n/a	1	n/a	n/a	n/a	n/a	n/a	0	0	n/a	n/a	n/a
708.764	1	80	n/a	n/a	1	n/a	n/a	n/a	n/a	n/a	0	0	n/a	n/a	n/a
708.9804	1	30	n/a	n/a	1	n/a	n/a	n/a	n/a	n/a	-0.1	0	n/a	n/a	n/a
710.997	1	40	n/a	n/a	1	n/a	n/a	n/a	n/a	n/a	0	0	n/a	n/a	n/a
755.261	1	10	944.6	944.6	1	1	0	0	0	0	-0.2	0	0.1	0.1	1
756.211	1	20	n/a	n/a	1	n/a	n/a	n/a	n/a	n/a	0	0	n/a	n/a	n/a
757.744	1	80	n/a	n/a	1	n/a	n/a	n/a	n/a	n/a	0	0	n/a	n/a	n/a
757.844	1	80	n/a	n/a	1	n/a	n/a	n/a	n/a	n/a	0	0	n/a	n/a	n/a
758.0608	1	31	n/a	n/a	1	n/a	n/a	n/a	n/a	n/a	-0.1	0	n/a	n/a	n/a
760.0774	1	10	1504.1	1504.1	1	1	0	0	0	0	0.1	0	0.7	0.7	2
761.594	1	20	n/a	n/a	1	n/a	n/a	n/a	n/a	n/a	0	0	n/a	n/a	n/a
762.642	1	80	n/a	n/a	1	n/a	n/a	n/a	n/a	n/a	-1.1642e-10	0	n/a	n/a	n/a
762.742	1	80	n/a	n/a	1	n/a	n/a	n/a	n/a	n/a	0	0	n/a	n/a	n/a
762.944	1	30	n/a	n/a	1	n/a	n/a	n/a	n/a	n/a	0.1	0	n/a	n/a	n/a
764.9604	1	10	1036.9	1036.9	1	1	0	0	0	0	-0.2	0	0.5	0.5	3
766.0104	1	20	n/a	n/a	1	n/a	n/a	n/a	n/a	n/a	0.1	0	n/a	n/a	n/a
767.2324	1	80	n/a	n/a	1	n/a	n/a	n/a	n/a	n/a	-0.1	0	n/a	n/a	n/a
767.3324	1	80	n/a	n/a	1	n/a	n/a	n/a	n/a	n/a	0	0	n/a	n/a	n/a
767.5436	1	31	n/a	n/a	1	n/a	n/a	n/a	n/a	n/a	0	0	n/a	n/a	n/a
769.5602	1	10	2037.1	2037.1	1	1	0	0	0	0	0.1	0	0.3	0.3	4
771.61	1	20	n/a	n/a	1	n/a	n/a	n/a	n/a	n/a	-0.1	0	n/a	n/a	n/a
773.427	1	80	n/a	n/a	1	n/a	n/a	n/a	n/a	n/a	0	0	n/a	n/a	n/a
773.527	1	80	n/a	n/a	1	n/a	n/a	n/a	n/a	n/a	0	0	n/a	n/a	n/a
773.7432	1	31	n/a	n/a	1	n/a	n/a	n/a	n/a	n/a	0	0	n/a	n/a	n/a
775.7598	1	10	941.3	941.3	1	1	0	0	0	0	0	0	0.2	0.2	5
776.7098	1	20	n/a	n/a	1	n/a	n/a	n/a	n/a	n/a	0.1	0	n/a	n/a	n/a
778.2398	1	80	n/a	n/a	1	n/a	n/a	n/a	n/a	n/a	-0.1	0	n/a	n/a	n/a
778.3398	1	80	n/a	n/a	1	n/a	n/a	n/a	n/a	n/a	0	0	n/a	n/a	n/a
778.543	1	31	n/a	n/a	1	n/a	n/a	n/a	n/a	n/a	0	0	n/a	n/a	n/a
780.5596	1	10	1549.5	1549.5	1	1	0	0	0	0	0.1	0	0.5	0.5	6
782.1262	1	20	n/a	n/a	1	n/a	n/a	n/a	n/a	n/a	-1.1642e-10	0	n/a	n/a	n/a
783.7592	1	80	n/a	n/a	1	n/a	n/a	n/a	n/a	n/a	0	0	n/a	n/a	n/a
783.8592	1	80	n/a	n/a	1	n/a	n/a	n/a	n/a	n/a	0	0	n/a	n/a	n/a
784.076	1	30	n/a	n/a	1	n/a	n/a	n/a	n/a	n/a	-0.1	0	n/a	n/a	n/a
786.0926	1	10	1296.3	1296.3	1	1	0	0	0	0	-1.1642e-10	0	0.7	0.7	7
787.3924	1	20	n/a	n/a	1	n/a	n/a	n/a	n/a	n/a	-0.1	0	n/a	n/a	n/a
789.3484	1	80	n/a	n/a	1	n/a	n/a	n/a	n/a	n/a	0	0	n/a	n/a	n/a
789.4484	1	80	n/a	n/a	1	n/a	n/a	n/a	n/a	n/a	0	0	n/a	n/a	n/a
789.659	1	30	n/a	n/a	1	n/a	n/a	n/a	n/a	n/a	0.1	0	n/a	n/a	n/a
791.6756	1	10	1857.2	1857.2	1	1	0	0	0	0	-1.1642e-10	0	0.1	0.1	8
793.5422	1	20	n/a	n/a	1	n/a	n/a	n/a	n/a	n/a	0.1	0	n/a	n/a	n/a
794.9102	1	80	n/a	n/a	1	n/a	n/a	n/a	n/a	n/a	-0.1	0	n/a	n/a	n/a
795.0102	1	80	n/a	n/a	1	n/a	n/a	n/a	n/a	n/a	0	0	n/a	n/a	n/a
795.2254	1	31	n/a	n/a	1	n/a	n/a	n/a	n/a	n/a	-1.1642e-10	0	n/a	n/a	n/a
797.2418	1	10	850.8	850.8	1	1	0	0	0	0	-0.1	0	0.9	0.9	9
798.1086	1	20	n/a	n/a	1	n/a	n/a	n/a	n/a	n/a	0.1	0	n/a	n/a	n/a
799.3926	1	80	n/a	n/a	1	n/a	n/a	n/a	n/a	n/a	0	0	n/a	n/a	n/a
799.4926	1	80	n/a	n/a	1	n/a	n/a	n/a	n/a	n/a	0	0	n/a	n/a	n/a
799.7084	1	31	n/a	n/a	1	n/a	n/a	n/a	n/a	n/a	-0.1	0	n/a	n/a	n/a
801.725	1	10	1759.6	1759.6	1	1	0	0	0	0	0.1	0	0.9	0.9	10
803.4916	1	20	n/a	n/a	1	n/a	n/a	n/a	n/a	n/a	-1.1642e-10	0	n/a	n/a	n/a
805.3896	1	80	n/a	n/a	1	n/a	n/a	n/a	n/a	n/a	0	0	n/a	n/a	n/a
805.4896	1	80	n/a	n/a	1	n/a	n/a	n/a	n/a	n/a	0	0	n/a	n/a	n/a
805.6914	1	31	n/a	n/a	1	n/a	n/a	n/a	n/a	n/a	-0.1	0	n/a	n/a	n/a
816.724	1	10	1928.1	1928.1	1	1	0	0	0.4	0.3557	-0.1	0	0.6	0.57047	11
818.6574	1	20	n/a	n/a	1	n/a	n/a	n/a	n/a	n/a	0.2	0	n/a	n/a	n/a
819.9094	1	80	n/a	n/a	1	n/a	n/a	n/a	n/a	n/a	-0.1	0	n/a	n/a	n/a
820.0094	1	80	n/a	n/a	1	n/a	n/a	n/a	n/a	n/a	0	0	n/a	n/a	n/a
820.2238	1	31	n/a	n/a	1	n/a	n/a	n/a	n/a	n/a	-0.1	0	n/a	n/a	n/a
822.2404	1	40	n/a	n/a	1	n/a	n/a	n/a	n/a	n/a	-1.1642e-10	0	n/a	n/a	n/a
824.257	1	10	1019.1	1019.1	1	1	0	0	0.8	0.90729	0.1	0	0.1	0.12918	12
825.2902	1	20	n/a	n/a	1	n/a	n/a	n/a	n/a	n/a	-0.1	0	n/a	n/a	n/a
826.3602	1	80	n/a	n/a	1	n/a	n/a	n/a	n/a	n/a	0	0	n/a	n/a	n/a
826.4602	1	80	n/a	n/a	1	n/a	n/a	n/a	n/a	n/a	0	0	n/a	n/a	n/a
826.6734	1	31	n/a	n/a	1	n/a	n/a	n/a	n/a	n/a	-0.1	0	n/a	n/a	n/a
828.69	1	40	n/a	n/a	1	n/a	n/a	n/a	n/a	n/a	0.1	0	n/a	n/a	n/a
830.7066	1	10	745.3	745.3	1	1	0	0	0.8	0.17072	-1.1642e-10	0	0.8	0.68286	13
831.4566	1	20	n/a	n/a	1	n/a	n/a	n/a	n/a	n/a	0.1	0	n/a	n/a	n/a
832.9606	1	80	n/a	n/a	1	n/a	n/a	n/a	n/a	n/a	0	0	n/a	n/a	n/a
833.0606	1	80	n/a	n/a	1	n/a	n/a	n/a	n/a	n/a	0	0	n/a	n/a	n/a
833.273	1	30	n/a	n/a	1	n/a	n/a	n/a	n/a	n/a	-0.2	0	n/a	n/a	n/a
835.2896	1	40	n/a	n/a	1	n/a	n/a	n/a	n/a	n/a	0.1	0	n/a	n/a	n/a
837.3062	1	10	1873.5	1873.5	1	1	0	0	0.8	0.43906	-1.1642e-10	0	0.1	0.0625	14
839.1894	1	20	n/a	n/a	1	n/a	n/a	n/a	n/a	n/a	1.1642e-10	0	n/a	n/a	n/a
840.4714	1	80	n/a	n/a	1	n/a	n/a	n/a	n/a	n/a	-0.1	0	n/a	n/a	n/a
840.5714	1	80	n/a	n/a	1	n/a	n/a	n/a	n/a	n/a	0	0	n/a	n/a	n/a
840.7894	1	31	n/a	n/a	1	n/a	n/a	n/a	n/a	n/a	0.2	0	n/a	n/a	n/a
842.8058	1	40	n/a	n/a	1	n/a	n/a	n/a	n/a	n/a	-0.2	0	n/a	n/a	n/a
844.8224	1	10	901.1	901.1	1	1	0	0	0.5	0.83232	1.1642e-10	0	0.2	0.23232	15
845.739	1	20	n/a	n/a	1	n/a	n/a	n/a	n/a	n/a	-1.1642e-10	0	n/a	n/a	n/a
846.938	1	80	n/a	n/a	1	n/a	n/a	n/a	n/a	n/a	0	0	n/a	n/a	n/a
847.038	1	80	n/a	n/a	1	n/a	n/a	n/a	n/a	n/a	0	0	n/a	n/a	n/a
847.2556	1	30	n/a	n/a	1	n/a	n/a	n/a	n/a	n/a	0.1	0	n/a	n/a	n/a
849.2722	1	40	n/a	n/a	1	n/a	n/a	n/a	n/a	n/a	-1.1642e-10	0	n/a	n/a	n/a
851.2886	1	10	674.7	674.7	1	1	0	0	0.7	0.80725	-0.2	0	0.4	0.88358	16
851.972	1	20	n/a	n/a	1	n/a	n/a	n/a	n/a	n/a	0.1	0	n/a	n/a	n/a
853.667	1	80	n/a	n/a	1	n/a	n/a	n/a	n/a	n/a	0	0	n/a	n/a	n/a
853.767	1	80	n/a	n/a	1	n/a	n/a	n/a	n/a	n/a	0	0	n/a	n/a	n/a
853.9718	1	30	n/a	n/a	1	n/a	n/a	n/a	n/a	n/a	0	0	n/a	n/a	n/a
855.9884	1	40	n/a	n/a	1	n/a	n/a	n/a	n/a	n/a	1.1642e-10	0	n/a	n/a	n/a
858.005	1	10	2438.2	2438.2	1	1	0	0	0.6	0.73564	-1.1642e-10	0	0.2	0.10346	17
860.4548	1	20	n/a	n/a	1	n/a	n/a	n/a	n/a	n/a	0	0	n/a	n/a	n/a
862.3818	1	80	n/a	n/a	1	n/a	n/a	n/a	n/a	n/a	0	0	n/a	n/a	n/a
862.4818	1	80	n/a	n/a	1	n/a	n/a	n/a	n/a	n/a	0	0	n/a	n/a	n/a
862.688	1	31	n/a	n/a	1	n/a	n/a	n/a	n/a	n/a	0	0	n/a	n/a	n/a
864.7046	1	40	n/a	n/a	1	n/a	n/a	n/a	n/a	n/a	-1.1642e-10	0	n/a	n/a	n/a
866.7212	1	10	746	746	1	1	0	0	0.4	0.87723	0.1	0	0.1	0.084818	18
867.471	1	20	n/a	n/a	1	n/a	n/a	n/a	n/a	n/a	-0.2	0	n/a	n/a	n/a
869.399	1	80	n/a	n/a	1	n/a	n/a	n/a	n/a	n/a	0	0	n/a	n/a	n/a
869.499	1	80	n/a	n/a	1	n/a	n/a	n/a	n/a	n/a	0	0	n/a	n/a	n/a
869.7042	1	31	n/a	n/a	1	n/a	n/a	n/a	n/a	n/a	0	0	n/a	n/a	n/a
871.7208	1	40	n/a	n/a	1	n/a	n/a	n/a	n/a	n/a	2.3283e-10	0	n/a	n/a	n/a
873.7374	1	10	1169.5	1169.5	1	1	0	0	0.8	0.59929	0.1	0	0.4	0.39714	19
874.9206	1	20	n/a	n/a	1	n/a	n/a	n/a	n/a	n/a	-0.1	0	n/a	n/a	n/a
875.9676	1	80	n/a	n/a	1	n/a	n/a	n/a	n/a	n/a	0	0	n/a	n/a	n/a
876.0676	1	80	n/a	n/a	1	n/a	n/a	n/a	n/a	n/a	0	0	n/a	n/a	n/a
876.2706	1	31	n/a	n/a	1	n/a	n/a	n/a	n/a	n/a	0.1	0	n/a	n/a	n/a
878.2872	1	40	n/a	n/a	1	n/a	n/a	n/a	n/a	n/a	1.1642e-10	0	n/a	n/a	n/a
880.3036	1	10	1403.1	1403.1	1	1	0	0	0.5	0.42209	-0.1	0	0.9	0.975	20
881.7202	1	20	n/a	n/a	1	n/a	n/a	n/a	n/a	n/a	-1.1642e-10	0	n/a	n/a	n/a
883.6092	1	80	n/a	n/a	1	n/a	n/a	n/a	n/a	n/a	0	0	n/a	n/a	n/a
883.7092	1	80	n/a	n/a	1	n/a	n/a	n/a	n/a	n/a	0	0	n/a	n/a	n/a
883.9202	1	31	n/a	n/a	1	n/a	n/a	n/a	n/a	n/a	0.1	0	n/a	n/a	n/a
885.9366	1	40	n/a	n/a	1	n/a	n/a	n/a	n/a	n/a	-0.2	0	n/a	n/a	n/a
896.9694	1	10	1473	1473	1	1	0	0	0	0	0.1	0	0.9	0.9	21
898.4526	1	20	n/a	n/a	1	n/a	n/a	n/a	n/a	n/a	0	0	n/a	n/a	n/a
899.8536	1	80	n/a	n/a	1	n/a	n/a	n/a	n/a	n/a	-0.1	0	n/a	n/a	n/a
899.9536	1	80	n/a	n/a	1	n/a	n/a	n/a	n/a	n/a	0	0	n/a	n/a	n/a
900.1692	1	31	n/a	n/a	1	n/a	n/a	n/a	n/a	n/a	0.1	0	n/a	n/a	n/a
902.1856	1	10	736.5	736.5	1	1	0	0	0	0	-0.2	0	0.9	0.9	22
902.9356	1	20	n/a	n/a	1	n/a	n/a	n/a	n/a	n/a	0.1	0	n/a	n/a	n/a
903.9826	1	80	n/a	n/a	1	n/a	n/a	n/a	n/a	n/a	0	0	n/a	n/a	n/a
904.0826	1	80	n/a	n/a	1	n/a	n/a	n/a	n/a	n/a	0	0	n/a	n/a	n/a
904.2856	1	31	n/a	n/a	1	n/a	n/a	n/a	n/a	n/a	0.1	0	n/a	n/a	n/a
906.3022	1	10	1980	1980	1	1	0	0	0	0	-1.1642e-10	0	0.8	0.8	23
908.2854	1	20	n/a	n/a	1	n/a	n/a	n/a	n/a	n/a	1.1642e-10	0	n/a	n/a	n/a
909.9734	1	80	n/a	n/a	1	n/a	n/a	n/a	n/a	n/a	0	0	n/a	n/a	n/a
910.0734	1	80	n/a	n/a	1	n/a	n/a	n/a	n/a	n/a	0	0	n/a	n/a	n/a
910.2852	1	31	n/a	n/a	1	n/a	n/a	n/a	n/a	n/a	-0.1	0	n/a	n/a	n/a
912.3018	1	10	1532.2	1532.2	1	1	0	0	0	0	0	0	0.1	0.1	24
913.8516	1	20	n/a	n/a	1	n/a	n/a	n/a	n/a	n/a	-0.1	0	n/a	n/a	n/a
915.3306	1	80	n/a	n/a	1	n/a	n/a	n/a	n/a	n/a	0	0	n/a	n/a	n/a
915.4306	1	80	n/a	n/a	1	n/a	n/a	n/a	n/a	n/a	0	0	n/a	n/a	n/a
915.6348	1	31	n/a	n/a	1	n/a	n/a	n/a	n/a	n/a	-1.1642e-10	0	n/a	n/a	n/a
917.6514	1	10	3126.4	3126.4	1	1	0	0	0	0	1.1642e-10	0	0.5	0.5	25
920.7846	1	20	n/a	n/a	1	n/a	n/a	n/a	n/a	n/a	0.1	0	n/a	n/a	n/a
922.5976	1	80	n/a	n/a	1	n/a	n/a	n/a	n/a	n/a	-0.1	0	n/a	n/a	n/a
922.6976	1	80	n/a	n/a	1	n/a	n/a	n/a	n/a	n/a	0	0	n/a	n/a	n/a
922.9012	1	30	n/a	n/a	1	n/a	n/a	n/a	n/a	n/a	0.1	0	n/a	n/a	n/a
924.9176	1	10	1044.1	1044.1	1	1	0	0	0	0	-0.1	0	0.2	0.2	26
925.9676	1	20	n/a	n/a	1	n/a	n/a	n/a	n/a	n/a	0	0	n/a	n/a	n/a
927.8056	1	80	n/a	n/a	1	n/a	n/a	n/a	n/a	n/a	0	0	n/a	n/a	n/a
927.9056	1	80	n/a	n/a	1	n/a	n/a	n/a	n/a	n/a	0	0	n/a	n/a	n/a
928.1174	1	31	n/a	n/a	1	n/a	n/a	n/a	n/a	n/a	-0.1	0	n/a	n/a	n/a
930.134	1	10	1043.6	1043.6	1	1	0	0	0	0	0.1	0	0.5	0.5	27
931.184	1	20	n/a	n/a	1	n/a	n/a	n/a	n/a	n/a	0	0	n/a	n/a	n/a
932.605	1	80	n/a	n/a	1	n/a	n/a	n/a	n/a	n/a	0	0	n/a	n/a	n/a
932.705	1	80	n/a	n/a	1	n/a	n/a	n/a	n/a	n/a	0	0	n/a	n/a	n/a
932.9172	1	30	n/a	n/a	1	n/a	n/a	n/a	n/a	n/a	0	0	n/a	n/a	n/a
934.9338	1	10	1923.7	1923.7	1	1	0	0	0	0	0	0	0.8	0.8	28
936.867	1	20	n/a	n/a	1	n/a	n/a	n/a	n/a	n/a	0	0	n/a	n/a	n/a
938.676	1	80	n/a	n/a	1	n/a	n/a	n/a	n/a	n/a	0	0	n/a	n/a	n/a
938.776	1	80	n/a	n/a	1	n/a	n/a	n/a	n/a	n/a	0	0	n/a	n/a	n/a
938.9836	1	30	n/a	n/a	1	n/a	n/a	n/a	n/a	n/a	0.1	0	n/a	n/a	n/a
941	1	10	1617.3	1617.3	1	1	0	0	0	0	-0.2	0	0.1	0.1	29
942.6332	1	20	n/a	n/a	1	n/a	n/a	n/a	n/a	n/a	-2.3283e-10	0	n/a	n/a	n/a
944.1294	1	80	n/a	n/a	1	n/a	n/a	n/a	n/a	n/a	0.1	0	n/a	n/a	n/a
944.2292	1	80	n/a	n/a	1	n/a	n/a	n/a	n/a	n/a	-0.2	0	n/a	n/a	n/a
944.4332	1	30	n/a	n/a	1	n/a	n/a	n/a	n/a	n/a	0.2	0	n/a	n/a	n/a
946.4498	1	10	903.5	903.5	1	1	0	0	0	0	0	0	0.3	0.3	30
947.3664	1	20	n/a	n/a	1	n/a	n/a	n/a	n/a	n/a	1.1642e-10	0	n/a	n/a	n/a
949.1104	1	80	n/a	n/a	1	n/a	n/a	n/a	n/a	n/a	0	0	n/a	n/a	n/a
949.2104	1	80	n/a	n/a	1	n/a	n/a	n/a	n/a	n/a	0	0	n/a	n/a	n/a
949.4162	1	30	n/a	n/a	1	n/a	n/a	n/a	n/a	n/a	-0.1	0	n/a	n/a	n/a
960.449	1	10	1640	1640	1	1	0	0	0.8	0.058145	0.1	0	0.8	0.23258	31
962.0988	1	20	n/a	n/a	1	n/a	n/a	n/a	n/a	n/a	-0.1	0	n/a	n/a	n/a
963.7998	1	80	n/a	n/a	1	n/a	n/a	n/a	n/a	n/a	0	0	n/a	n/a	n/a
963.8998	1	80	n/a	n/a	1	n/a	n/a	n/a	n/a	n/a	0	0	n/a	n/a	n/a
964.1154	1	30	n/a	n/a	1	n/a	n/a	n/a	n/a	n/a	-1.1642e-10	0	n/a	n/a	n/a
966.132	1	40	n/a	n/a	1	n/a	n/a	n/a	n/a	n/a	0.1	0	n/a	n/a	n/a
968.1484	1	10	1076.3	1076.3	1	1	0	0	0.8	0.27104	-0.2	0	0.2	0.0625	32
969.2318	1	20	n/a	n/a	1	n/a	n/a	n/a	n/a	n/a	0.1	0	n/a	n/a	n/a
970.5918	1	80	n/a	n/a	1	n/a	n/a	n/a	n/a	n/a	0	0	n/a	n/a	n/a
970.6918	1	80	n/a	n/a	1	n/a	n/a	n/a	n/a	n/a	0	0	n/a	n/a	n/a
970.8982	1	30	n/a	n/a	1	n/a	n/a	n/a	n/a	n/a	-0.1	0	n/a	n/a	n/a
972.9148	1	40	n/a	n/a	1	n/a	n/a	n/a	n/a	n/a	0	0	n/a	n/a	n/a
974.9314	1	10	725.2	725.2	1	1	0	0	0.5	0.23364	0.1	0	0.4	0.033641	33
975.6646	1	20	n/a	n/a	1	n/a	n/a	n/a	n/a	n/a	-0.1	0	n/a	n/a	n/a
977.3646	1	80	n/a	n/a	1	n/a	n/a	n/a	n/a	n/a	-0.1	0	n/a	n/a	n/a
977.4646	1	80	n/a	n/a	1	n/a	n/a	n/a	n/a	n/a	0	0	n/a	n/a	n/a
977.6812	1	30	n/a	n/a	1	n/a	n/a	n/a	n/a	n/a	0.1	0	n/a	n/a	n/a
979.6978	1	40	n/a	n/a	1	n/a	n/a	n/a	n/a	n/a	0	0	n/a	n/a	n/a
981.7144	1	10	582.1	582.1	1	1	0	0	0.5	0.72912	0.1	0	0.1	0.025	34
982.3142	1	20	n/a	n/a	1	n/a	n/a	n/a	n/a	n/a	-0.2	0	n/a	n/a	n/a
983.8572	1	80	n/a	n/a	1	n/a	n/a	n/a	n/a	n/a	0	0	n/a	n/a	n/a
983.9572	1	80	n/a	n/a	1	n/a	n/a	n/a	n/a	n/a	0	0	n/a	n/a	n/a
984.1642	1	31	n/a	n/a	1	n/a	n/a	n/a	n/a	n/a	0.1	0	n/a	n/a	n/a
986.1808	1	40	n/a	n/a	1	n/a	n/a	n/a	n/a	n/a	0.1	0	n/a	n/a	n/a
988.1972	1	10	755	755	1	1	0	0	0.4	0.18599	-0.2	0	0.1	0.020833	35
988.9638	1	20	n/a	n/a	1	n/a	n/a	n/a	n/a	n/a	0	0	n/a	n/a	n/a
990.7558	1	80	n/a	n/a	1	n/a	n/a	n/a	n/a	n/a	0	0	n/a	n/a	n/a
990.8558	1	80	n/a	n/a	1	n/a	n/a	n/a	n/a	n/a	0	0	n/a	n/a	n/a
991.0638	1	31	n/a	n/a	1	n/a	n/a	n/a	n/a	n/a	0.1	0	n/a	n/a	n/a
993.0804	1	40	n/a	n/a	1	n/a	n/a	n/a	n/a	n/a	0.1	0	n/a	n/a	n/a
995.0968	1	10	911.3	911.3	1	1	0	0	0.6	0.0011774	-0.2	0	0.9	0.75177	36
996.0134	1	20	n/a	n/a	1	n/a	n/a	n/a	n/a	n/a	1.1642e-10	0	n/a	n/a	n/a
997.3084	1	80	n/a	n/a	1	n/a	n/a	n/a	n/a	n/a	0	0	n/a	n/a	n/a
997.4084	1	80	n/a	n/a	1	n/a	n/a	n/a	n/a	n/a	0	0	n/a	n/a	n/a
997.6134	1	30	n/a	n/a	1	n/a	n/a	n/a	n/a	n/a	0.1	0	n/a	n/a	n/a
999.63	1	40	n/a	n/a	1	n/a	n/a	n/a	n/a	n/a	1.1642e-10	0	n/a	n/a	n/a
1001.6464	1	10	665.6	665.6	1	1	0	0	0.4	0.57821	-0.1	0	0.1	0.020833	37
1002.3298	1	20	n/a	n/a	1	n/a	n/a	n/a	n/a	n/a	0.2	0	n/a	n/a	n/a
1004.3206	1	80	n/a	n/a	1	n/a	n/a	n/a	n/a	n/a	-0.2	0	n/a	n/a	n/a
1004.4206	1	80	n/a	n/a	1	n/a	n/a	n/a	n/a	n/a	0	0	n/a	n/a	n/a
1004.6296	1	31	n/a	n/a	1	n/a	n/a	n/a	n/a	n/a	0	0	n/a	n/a	n/a
1006.6462	1	40	n/a	n/a	1	n/a	n/a	n/a	n/a	n/a	-1.1642e-10	0	n/a	n/a	n/a
1008.6628	1	10	1329.1	1329.1	1	1	0	0	0.7	0.53996	0.1	0	0.5	0.59324	38
1009.996	1	20	n/a	n/a	1	n/a	n/a	n/a	n/a	n/a	-0.1	0	n/a	n/a	n/a
1011.636	1	80	n/a	n/a	1	n/a	n/a	n/a	n/a	n/a	0	0	n/a	n/a	n/a
1011.736	1	80	n/a	n/a	1	n/a	n/a	n/a	n/a	n/a	0	0	n/a	n/a	n/a
1011.9458	1	30	n/a	n/a	1	n/a	n/a	n/a	n/a	n/a	-0.1	0	n/a	n/a	n/a
1013.9624	1	40	n/a	n/a	1	n/a	n/a	n/a	n/a	n/a	0.1	0	n/a	n/a	n/a
1015.979	1	10	828.7	828.7	1	1	0	0	0.7	0.61177	-1.1642e-10	0	0.5	0.7608	39
1016.8122	1	20	n/a	n/a	1	n/a	n/a	n/a	n/a	n/a	-0.1	0	n/a	n/a	n/a
1017.9432	1	80	n/a	n/a	1	n/a	n/a	n/a	n/a	n/a	0	0	n/a	n/a	n/a
1018.0432	1	80	n/a	n/a	1	n/a	n/a	n/a	n/a	n/a	0	0	n/a	n/a	n/a
1018.2454	1	31	n/a	n/a	1	n/a	n/a	n/a	n/a	n/a	1.1642e-10	0	n/a	n/a	n/a
1020.262	1	40	n/a	n/a	1	n/a	n/a	n/a	n/a	n/a	1.1642e-10	0	n/a	n/a	n/a
1022.2786	1	10	1536.9	1536.9	1	1	0	0	0.8	0.79436	0.1	0	0.2	0.17742	40
1023.8284	1	20	n/a	n/a	1	n/a	n/a	n/a	n/a	n/a	-0.2	0	n/a	n/a	n/a
1025.6454	1	80	n/a	n/a	1	n/a	n/a	n/a	n/a	n/a	0	0	n/a	n/a	n/a
1025.7454	1	80	n/a	n/a	1	n/a	n/a	n/a	n/a	n/a	0	0	n/a	n/a	n/a
1025.9616	1	31	n/a	n/a	1	n/a	n/a	n/a	n/a	n/a	-2.3283e-10	0	n/a	n/a	n/a
1027.9782	1	40	n/a	n/a	1	n/a	n/a	n/a	n/a	n/a	0.1	0	n/a	n/a	n/a
1115.423	1	10	870.3	870.3	1	0	1	0	0	0	-0.4	0	0.1	0.1	1
1116.3064	1	20	n/a	n/a	1	n/a	n/a	n/a	n/a	n/a	0.1	0	n/a	n/a	n/a
1117.8644	1	80	n/a	n/a	1	n/a	n/a	n/a	n/a	n/a	0	0	n/a	n/a	n/a
1117.9644	1	80	n/a	n/a	1	n/a	n/a	n/a	n/a	n/a	0	0	n/a	n/a	n/a
1118.173	1	31	n/a	n/a	1	n/a	n/a	n/a	n/a	n/a	2.3283e-10	0	n/a	n/a	n/a
1120.1894	1	10	935.8	935.8	1	0	1	0	0	0	-0.1	0	0.1	0.1	2
1121.1394	1	20	n/a	n/a	1	n/a	n/a	n/a	n/a	n/a	0	0	n/a	n/a	n/a
1122.4484	1	80	n/a	n/a	1	n/a	n/a	n/a	n/a	n/a	0	0	n/a	n/a	n/a
1122.5484	1	80	n/a	n/a	1	n/a	n/a	n/a	n/a	n/a	0	0	n/a	n/a	n/a
1122.756	1	31	n/a	n/a	1	n/a	n/a	n/a	n/a	n/a	0.1	0	n/a	n/a	n/a
1124.7726	1	10	960.6	960.6	1	0	1	0	0	0	0	0	0.2	0.2	3
1125.7392	1	20	n/a	n/a	1	n/a	n/a	n/a	n/a	n/a	0	0	n/a	n/a	n/a
1127.5652	1	80	n/a	n/a	1	n/a	n/a	n/a	n/a	n/a	0	0	n/a	n/a	n/a
1127.6652	1	80	n/a	n/a	1	n/a	n/a	n/a	n/a	n/a	0	0	n/a	n/a	n/a
1127.8724	1	31	n/a	n/a	1	n/a	n/a	n/a	n/a	n/a	-2.3283e-10	0	n/a	n/a	n/a
1129.8888	1	10	1412.1	1412.1	1	0	1	0	0	0	-0.2	0	0.1	0.1	4
1131.3054	1	20	n/a	n/a	1	n/a	n/a	n/a	n/a	n/a	-2.3283e-10	0	n/a	n/a	n/a
1132.9334	1	80	n/a	n/a	1	n/a	n/a	n/a	n/a	n/a	0	0	n/a	n/a	n/a
1133.0334	1	80	n/a	n/a	1	n/a	n/a	n/a	n/a	n/a	0	0	n/a	n/a	n/a
1133.2386	1	31	n/a	n/a	1	n/a	n/a	n/a	n/a	n/a	2.3283e-10	0	n/a	n/a	n/a
1135.2552	1	10	781.7	781.7	1	0	1	0	0	0	0.1	0	0.1	0.1	5
1136.0552	1	20	n/a	n/a	1	n/a	n/a	n/a	n/a	n/a	0	0	n/a	n/a	n/a
1137.8362	1	80	n/a	n/a	1	n/a	n/a	n/a	n/a	n/a	0	0	n/a	n/a	n/a
1137.9362	1	80	n/a	n/a	1	n/a	n/a	n/a	n/a	n/a	0	0	n/a	n/a	n/a
1138.1384	1	31	n/a	n/a	1	n/a	n/a	n/a	n/a	n/a	0	0	n/a	n/a	n/a
1140.155	1	10	1225.8	1225.8	1	0	1	0	0	0	0	0	0.2	0.2	6
1141.3882	1	20	n/a	n/a	1	n/a	n/a	n/a	n/a	n/a	0	0	n/a	n/a	n/a
1142.7892	1	80	n/a	n/a	1	n/a	n/a	n/a	n/a	n/a	-0.1	0	n/a	n/a	n/a
1142.8892	1	80	n/a	n/a	1	n/a	n/a	n/a	n/a	n/a	0	0	n/a	n/a	n/a
1143.1048	1	31	n/a	n/a	1	n/a	n/a	n/a	n/a	n/a	0.1	0	n/a	n/a	n/a
1145.1214	1	10	755.5	755.5	1	0	1	0	0	0	0.1	0	0.1	0.1	7
1145.888	1	20	n/a	n/a	1	n/a	n/a	n/a	n/a	n/a	-0.1	0	n/a	n/a	n/a
1147.448	1	80	n/a	n/a	1	n/a	n/a	n/a	n/a	n/a	0	0	n/a	n/a	n/a
1147.548	1	80	n/a	n/a	1	n/a	n/a	n/a	n/a	n/a	0	0	n/a	n/a	n/a
1147.7544	1	31	n/a	n/a	1	n/a	n/a	n/a	n/a	n/a	-0.2	0	n/a	n/a	n/a
1149.771	1	10	1369.6	1369.6	1	0	1	0	0	0	0.1	0	0.6	0.6	8
1151.1542	1	20	n/a	n/a	1	n/a	n/a	n/a	n/a	n/a	-0.1	0	n/a	n/a	n/a
1153.0782	1	80	n/a	n/a	1	n/a	n/a	n/a	n/a	n/a	0	0	n/a	n/a	n/a
1153.1782	1	80	n/a	n/a	1	n/a	n/a	n/a	n/a	n/a	0	0	n/a	n/a	n/a
1153.3874	1	31	n/a	n/a	1	n/a	n/a	n/a	n/a	n/a	-2.3283e-10	0	n/a	n/a	n/a
1155.404	1	10	824.5	824.5	1	0	1	0	0	0	0.1	0	0.1	0.1	9
1156.2374	1	20	n/a	n/a	1	n/a	n/a	n/a	n/a	n/a	0.1	0	n/a	n/a	n/a
1157.9184	1	80	n/a	n/a	1	n/a	n/a	n/a	n/a	n/a	0	0	n/a	n/a	n/a
1158.0184	1	80	n/a	n/a	1	n/a	n/a	n/a	n/a	n/a	0	0	n/a	n/a	n/a
1158.2206	1	31	n/a	n/a	1	n/a	n/a	n/a	n/a	n/a	0	0	n/a	n/a	n/a
1160.237	1	10	647.3	647.3	1	0	1	0	0	0	-0.2	0	0.1	0.1	10
1160.887	1	20	n/a	n/a	1	n/a	n/a	n/a	n/a	n/a	0	0	n/a	n/a	n/a
1161.907	1	80	n/a	n/a	1	n/a	n/a	n/a	n/a	n/a	0	0	n/a	n/a	n/a
1162.007	1	80	n/a	n/a	1	n/a	n/a	n/a	n/a	n/a	0	0	n/a	n/a	n/a
1162.2202	1	31	n/a	n/a	1	n/a	n/a	n/a	n/a	n/a	2.3283e-10	0	n/a	n/a	n/a
1173.253	1	10	1775	1775	1	0	1	0	0.7	0.1805	-2.3283e-10	0	0.8	0.7545	11
1175.0362	1	20	n/a	n/a	1	n/a	n/a	n/a	n/a	n/a	2.3283e-10	0	n/a	n/a	n/a
1176.2202	1	80	n/a	n/a	1	n/a	n/a	n/a	n/a	n/a	0	0	n/a	n/a	n/a
1176.3202	1	80	n/a	n/a	1	n/a	n/a	n/a	n/a	n/a	0	0	n/a	n/a	n/a
1176.5362	1	30	n/a	n/a	1	n/a	n/a	n/a	n/a	n/a	0.1	0	n/a	n/a	n/a
1178.5526	1	40	n/a	n/a	1	n/a	n/a	n/a	n/a	n/a	-0.2	0	n/a	n/a	n/a
1180.5692	1	10	970.7	970.7	1	0	1	0	0.6	0.51957	0.1	0	0.4	0.27935	12
1181.5524	1	20	n/a	n/a	1	n/a	n/a	n/a	n/a	n/a	-0.1	0	n/a	n/a	n/a
1182.8844	1	80	n/a	n/a	1	n/a	n/a	n/a	n/a	n/a	0	0	n/a	n/a	n/a
1182.9844	1	80	n/a	n/a	1	n/a	n/a	n/a	n/a	n/a	0	0	n/a	n/a	n/a
1183.2024	1	31	n/a	n/a	1	n/a	n/a	n/a	n/a	n/a	0.1	0	n/a	n/a	n/a
1185.219	1	40	n/a	n/a	1	n/a	n/a	n/a	n/a	n/a	0	0	n/a	n/a	n/a
1187.2354	1	10	1520.3	1520.3	1	0	1	0	0.8	0.80766	-0.1	0	0.9	0.9375	13
1188.7688	1	20	n/a	n/a	1	n/a	n/a	n/a	n/a	n/a	0.1	0	n/a	n/a	n/a
1190.4108	1	80	n/a	n/a	1	n/a	n/a	n/a	n/a	n/a	0	0	n/a	n/a	n/a
1190.5108	1	80	n/a	n/a	1	n/a	n/a	n/a	n/a	n/a	0	0	n/a	n/a	n/a
1190.7186	1	31	n/a	n/a	1	n/a	n/a	n/a	n/a	n/a	-0.1	0	n/a	n/a	n/a
1192.7352	1	40	n/a	n/a	1	n/a	n/a	n/a	n/a	n/a	0.1	0	n/a	n/a	n/a
1194.7518	1	10	883.8	883.8	1	0	1	0	0.4	0.87765	0	0	0.1	0.085101	14
1195.6516	1	20	n/a	n/a	1	n/a	n/a	n/a	n/a	n/a	-0.1	0	n/a	n/a	n/a
1197.4516	1	80	n/a	n/a	1	n/a	n/a	n/a	n/a	n/a	0	0	n/a	n/a	n/a
1197.5516	1	80	n/a	n/a	1	n/a	n/a	n/a	n/a	n/a	0	0	n/a	n/a	n/a
1197.7682	1	31	n/a	n/a	1	n/a	n/a	n/a	n/a	n/a	-2.3283e-10	0	n/a	n/a	n/a
1199.7848	1	40	n/a	n/a	1	n/a	n/a	n/a	n/a	n/a	0.1	0	n/a	n/a	n/a
1201.8012	1	10	1162.1	1162.1	1	0	1	0	0.6	0.83872	-0.2	0	0.2	0.25808	15
1202.9678	1	20	n/a	n/a	1	n/a	n/a	n/a	n/a	n/a	0	0	n/a	n/a	n/a
1204.1758	1	80	n/a	n/a	1	n/a	n/a	n/a	n/a	n/a	0	0	n/a	n/a	n/a
1204.2758	1	80	n/a	n/a	1	n/a	n/a	n/a	n/a	n/a	0	0	n/a	n/a	n/a
1204.4844	1	31	n/a	n/a	1	n/a	n/a	n/a	n/a	n/a	-2.3283e-10	0	n/a	n/a	n/a
1206.501	1	40	n/a	n/a	1	n/a	n/a	n/a	n/a	n/a	0.1	0	n/a	n/a	n/a
1208.5176	1	10	749.7	749.7	1	0	1	0	0.4	0.30939	4.6566e-10	0	0.8	0.87293	16
1209.2842	1	20	n/a	n/a	1	n/a	n/a	n/a	n/a	n/a	-2.3283e-10	0	n/a	n/a	n/a
1210.6342	1	80	n/a	n/a	1	n/a	n/a	n/a	n/a	n/a	0	0	n/a	n/a	n/a
1210.7342	1	80	n/a	n/a	1	n/a	n/a	n/a	n/a	n/a	0	0	n/a	n/a	n/a
1210.9508	1	31	n/a	n/a	1	n/a	n/a	n/a	n/a	n/a	0	0	n/a	n/a	n/a
1212.9672	1	40	n/a	n/a	1	n/a	n/a	n/a	n/a	n/a	-0.1	0	n/a	n/a	n/a
1214.9838	1	10	667.3	667.3	1	0	1	0	0.5	0.40982	0	0	0.4	0.20982	17
1215.6672	1	20	n/a	n/a	1	n/a	n/a	n/a	n/a	n/a	0.1	0	n/a	n/a	n/a
1217.0432	1	80	n/a	n/a	1	n/a	n/a	n/a	n/a	n/a	0	0	n/a	n/a	n/a
1217.1432	1	80	n/a	n/a	1	n/a	n/a	n/a	n/a	n/a	0	0	n/a	n/a	n/a
1217.3504	1	31	n/a	n/a	1	n/a	n/a	n/a	n/a	n/a	-2.3283e-10	0	n/a	n/a	n/a
1219.367	1	40	n/a	n/a	1	n/a	n/a	n/a	n/a	n/a	0	0	n/a	n/a	n/a
1221.3834	1	10	2027.5	2027.5	1	0	1	0	0.6	0.25131	-0.1	0	0.8	0.87697	18
1223.4166	1	20	n/a	n/a	1	n/a	n/a	n/a	n/a	n/a	4.6566e-10	0	n/a	n/a	n/a
1224.6206	1	80	n/a	n/a	1	n/a	n/a	n/a	n/a	n/a	-0.1	0	n/a	n/a	n/a
1224.7206	1	80	n/a	n/a	1	n/a	n/a	n/a	n/a	n/a	0	0	n/a	n/a	n/a
1224.9332	1	30	n/a	n/a	1	n/a	n/a	n/a	n/a	n/a	0.1	0	n/a	n/a	n/a
1226.9498	1	40	n/a	n/a	1	n/a	n/a	n/a	n/a	n/a	0	0	n/a	n/a	n/a
1228.9664	1	10	1916.5	1916.5	1	0	1	0	0.7	0.73134	0.1	0	0.4	0.70646	19
1230.8996	1	20	n/a	n/a	1	n/a	n/a	n/a	n/a	n/a	-0.1	0	n/a	n/a	n/a
1232.0416	1	80	n/a	n/a	1	n/a	n/a	n/a	n/a	n/a	0	0	n/a	n/a	n/a
1232.1416	1	80	n/a	n/a	1	n/a	n/a	n/a	n/a	n/a	0	0	n/a	n/a	n/a
1232.3494	1	30	n/a	n/a	1	n/a	n/a	n/a	n/a	n/a	-0.1	0	n/a	n/a	n/a
1234.366	1	40	n/a	n/a	1	n/a	n/a	n/a	n/a	n/a	0.1	0	n/a	n/a	n/a
1236.3826	1	10	1284	1284	1	0	1	0	0.4	0.7174	0	0	0.4	0.47826	20
1237.6824	1	20	n/a	n/a	1	n/a	n/a	n/a	n/a	n/a	-0.1	0	n/a	n/a	n/a
1239.0256	1	80	n/a	n/a	1	n/a	n/a	n/a	n/a	n/a	0.1	0	n/a	n/a	n/a
1239.1256	1	80	n/a	n/a	1	n/a	n/a	n/a	n/a	n/a	0	0	n/a	n/a	n/a
1239.3324	1	30	n/a	n/a	1	n/a	n/a	n/a	n/a	n/a	-4.6566e-10	0	n/a	n/a	n/a
1241.349	1	40	n/a	n/a	1	n/a	n/a	n/a	n/a	n/a	4.6566e-10	0	n/a	n/a	n/a
1252.3816	1	10	1940.6	1940.6	1	0	1	0	0	0	-0.1	0	0.7	0.7	21
1254.3316	1	20	n/a	n/a	1	n/a	n/a	n/a	n/a	n/a	0.1	0	n/a	n/a	n/a
1255.6776	1	80	n/a	n/a	1	n/a	n/a	n/a	n/a	n/a	0	0	n/a	n/a	n/a
1255.7776	1	80	n/a	n/a	1	n/a	n/a	n/a	n/a	n/a	0	0	n/a	n/a	n/a
1255.9814	1	30	n/a	n/a	1	n/a	n/a	n/a	n/a	n/a	-0.1	0	n/a	n/a	n/a
1257.998	1	10	1012.1	1012.1	1	0	1	0	0	0	0	0	0.2	0.2	22
1259.0146	1	20	n/a	n/a	1	n/a	n/a	n/a	n/a	n/a	0	0	n/a	n/a	n/a
1260.9846	1	80	n/a	n/a	1	n/a	n/a	n/a	n/a	n/a	0	0	n/a	n/a	n/a
1261.0846	1	80	n/a	n/a	1	n/a	n/a	n/a	n/a	n/a	0	0	n/a	n/a	n/a
1261.2978	1	31	n/a	n/a	1	n/a	n/a	n/a	n/a	n/a	-2.3283e-10	0	n/a	n/a	n/a
1263.3144	1	10	895.6	895.6	1	0	1	0	0	0	2.3283e-10	0	0.1	0.1	23
1264.2142	1	20	n/a	n/a	1	n/a	n/a	n/a	n/a	n/a	-0.1	0	n/a	n/a	n/a
1265.789	1	80	n/a	n/a	1	n/a	n/a	n/a	n/a	n/a	2.3283e-10	0	n/a	n/a	n/a
1265.889	1	80	n/a	n/a	1	n/a	n/a	n/a	n/a	n/a	0	0	n/a	n/a	n/a
1266.0974	1	31	n/a	n/a	1	n/a	n/a	n/a	n/a	n/a	0	0	n/a	n/a	n/a
1268.114	1	10	799.9	799.9	1	0	1	0	0	0	0	0	0.9	0.9	24
1268.9306	1	20	n/a	n/a	1	n/a	n/a	n/a	n/a	n/a	0	0	n/a	n/a	n/a
1270.0426	1	80	n/a	n/a	1	n/a	n/a	n/a	n/a	n/a	0	0	n/a	n/a	n/a
1270.1426	1	80	n/a	n/a	1	n/a	n/a	n/a	n/a	n/a	0	0	n/a	n/a	n/a
1270.3472	1	31	n/a	n/a	1	n/a	n/a	n/a	n/a	n/a	-2.3283e-10	0	n/a	n/a	n/a
1272.3638	1	10	1238	1238	1	0	1	0	0	0	4.6566e-10	0	0.5	0.5	25
1273.6138	1	20	n/a	n/a	1	n/a	n/a	n/a	n/a	n/a	0.1	0	n/a	n/a	n/a
1274.7038	1	80	n/a	n/a	1	n/a	n/a	n/a	n/a	n/a	0	0	n/a	n/a	n/a
1274.8038	1	80	n/a	n/a	1	n/a	n/a	n/a	n/a	n/a	0	0	n/a	n/a	n/a
1275.0136	1	31	n/a	n/a	1	n/a	n/a	n/a	n/a	n/a	-0.1	0	n/a	n/a	n/a
1277.0302	1	10	763.5	763.5	1	0	1	0	0	0	-2.3283e-10	0	0.2	0.2	26
1277.7968	1	20	n/a	n/a	1	n/a	n/a	n/a	n/a	n/a	4.6566e-10	0	n/a	n/a	n/a
1279.1848	1	80	n/a	n/a	1	n/a	n/a	n/a	n/a	n/a	0	0	n/a	n/a	n/a
1279.2848	1	80	n/a	n/a	1	n/a	n/a	n/a	n/a	n/a	0	0	n/a	n/a	n/a
1279.4966	1	31	n/a	n/a	1	n/a	n/a	n/a	n/a	n/a	-0.1	0	n/a	n/a	n/a
1281.5132	1	10	1112.3	1112.3	1	0	1	0	0	0	2.3283e-10	0	0.4	0.4	27
1282.6298	1	20	n/a	n/a	1	n/a	n/a	n/a	n/a	n/a	0	0	n/a	n/a	n/a
1284.6028	1	80	n/a	n/a	1	n/a	n/a	n/a	n/a	n/a	0	0	n/a	n/a	n/a
1284.7028	1	80	n/a	n/a	1	n/a	n/a	n/a	n/a	n/a	0	0	n/a	n/a	n/a
1284.913	1	30	n/a	n/a	1	n/a	n/a	n/a	n/a	n/a	-2.3283e-10	0	n/a	n/a	n/a
1286.9296	1	10	2287.9	2287.9	1	0	1	0	0	0	0.1	0	0.6	0.6	28
1289.2294	1	20	n/a	n/a	1	n/a	n/a	n/a	n/a	n/a	-0.1	0	n/a	n/a	n/a
1291.0734	1	80	n/a	n/a	1	n/a	n/a	n/a	n/a	n/a	0	0	n/a	n/a	n/a
1291.1734	1	80	n/a	n/a	1	n/a	n/a	n/a	n/a	n/a	0	0	n/a	n/a	n/a
1291.3794	1	30	n/a	n/a	1	n/a	n/a	n/a	n/a	n/a	0.1	0	n/a	n/a	n/a
1293.3958	1	10	1085.5	1085.5	1	0	1	0	0	0	-0.1	0	0.7	0.7	29
1294.4958	1	20	n/a	n/a	1	n/a	n/a	n/a	n/a	n/a	0	0	n/a	n/a	n/a
1295.9048	1	80	n/a	n/a	1	n/a	n/a	n/a	n/a	n/a	0	0	n/a	n/a	n/a
1296.0048	1	80	n/a	n/a	1	n/a	n/a	n/a	n/a	n/a	0	0	n/a	n/a	n/a
1296.2124	1	30	n/a	n/a	1	n/a	n/a	n/a	n/a	n/a	0.1	0	n/a	n/a	n/a
1298.229	1	10	972.3	972.3	1	0	1	0	0	0	0	0	0.9	0.9	30
1299.2122	1	20	n/a	n/a	1	n/a	n/a	n/a	n/a	n/a	-0.1	0	n/a	n/a	n/a
1300.8002	1	80	n/a	n/a	1	n/a	n/a	n/a	n/a	n/a	0	0	n/a	n/a	n/a
1300.9002	1	80	n/a	n/a	1	n/a	n/a	n/a	n/a	n/a	0	0	n/a	n/a	n/a
1301.112	1	31	n/a	n/a	1	n/a	n/a	n/a	n/a	n/a	-0.1	0	n/a	n/a	n/a
1312.1448	1	10	1072.1	1072.1	1	0	1	0	0.8	0.049384	0.1	0	0.8	0.19754	31
1313.228	1	20	n/a	n/a	1	n/a	n/a	n/a	n/a	n/a	-0.1	0	n/a	n/a	n/a
1315.067	1	80	n/a	n/a	1	n/a	n/a	n/a	n/a	n/a	0	0	n/a	n/a	n/a
1315.167	1	80	n/a	n/a	1	n/a	n/a	n/a	n/a	n/a	0	0	n/a	n/a	n/a
1315.3778	1	30	n/a	n/a	1	n/a	n/a	n/a	n/a	n/a	-0.1	0	n/a	n/a	n/a
1317.3944	1	40	n/a	n/a	1	n/a	n/a	n/a	n/a	n/a	0.1	0	n/a	n/a	n/a
1319.411	1	10	1277.7	1277.7	1	0	1	0	0.5	0.86451	0	0	0.8	0.975	32
1320.6942	1	20	n/a	n/a	1	n/a	n/a	n/a	n/a	n/a	2.3283e-10	0	n/a	n/a	n/a
1322.4782	1	80	n/a	n/a	1	n/a	n/a	n/a	n/a	n/a	-0.1	0	n/a	n/a	n/a
1322.5782	1	80	n/a	n/a	1	n/a	n/a	n/a	n/a	n/a	0	0	n/a	n/a	n/a
1322.7942	1	31	n/a	n/a	1	n/a	n/a	n/a	n/a	n/a	0.2	0	n/a	n/a	n/a
1324.8106	1	40	n/a	n/a	1	n/a	n/a	n/a	n/a	n/a	-0.2	0	n/a	n/a	n/a
1326.8272	1	10	1077.4	1077.4	1	0	1	0	0.5	0.85197	0.1	0	0.1	0.051968	33
1327.9104	1	20	n/a	n/a	1	n/a	n/a	n/a	n/a	n/a	-0.1	0	n/a	n/a	n/a
1329.0134	1	80	n/a	n/a	1	n/a	n/a	n/a	n/a	n/a	0	0	n/a	n/a	n/a
1329.1134	1	80	n/a	n/a	1	n/a	n/a	n/a	n/a	n/a	0	0	n/a	n/a	n/a
1329.327	1	31	n/a	n/a	1	n/a	n/a	n/a	n/a	n/a	4.6566e-10	0	n/a	n/a	n/a
1331.3436	1	40	n/a	n/a	1	n/a	n/a	n/a	n/a	n/a	0.1	0	n/a	n/a	n/a
1333.3602	1	10	640.2	640.2	1	0	1	0	0.6	0.41177	-2.3283e-10	0	0.7	0.86765	34
1334.0102	1	20	n/a	n/a	1	n/a	n/a	n/a	n/a	n/a	0	0	n/a	n/a	n/a
1335.1692	1	80	n/a	n/a	1	n/a	n/a	n/a	n/a	n/a	0	0	n/a	n/a	n/a
1335.2692	1	80	n/a	n/a	1	n/a	n/a	n/a	n/a	n/a	0	0	n/a	n/a	n/a
1335.4768	1	30	n/a	n/a	1	n/a	n/a	n/a	n/a	n/a	0.1	0	n/a	n/a	n/a
1337.4932	1	40	n/a	n/a	1	n/a	n/a	n/a	n/a	n/a	-0.2	0	n/a	n/a	n/a
1339.5098	1	10	1354.4	1354.4	1	0	1	0	0.5	0.018685	0	0	0.7	0.41869	35
1340.8764	1	20	n/a	n/a	1	n/a	n/a	n/a	n/a	n/a	0.1	0	n/a	n/a	n/a
1342.7834	1	80	n/a	n/a	1	n/a	n/a	n/a	n/a	n/a	-0.1	0	n/a	n/a	n/a
1342.8834	1	80	n/a	n/a	1	n/a	n/a	n/a	n/a	n/a	0	0	n/a	n/a	n/a
1343.093	1	30	n/a	n/a	1	n/a	n/a	n/a	n/a	n/a	0.1	0	n/a	n/a	n/a
1345.1094	1	40	n/a	n/a	1	n/a	n/a	n/a	n/a	n/a	-0.1	0	n/a	n/a	n/a
1347.126	1	10	938.1	938.1	1	0	1	0	0.8	0.7216	4.6566e-10	0	0.7	0.9375	36
1348.076	1	20	n/a	n/a	1	n/a	n/a	n/a	n/a	n/a	0	0	n/a	n/a	n/a
1349.67	1	80	n/a	n/a	1	n/a	n/a	n/a	n/a	n/a	0	0	n/a	n/a	n/a
1349.77	1	80	n/a	n/a	1	n/a	n/a	n/a	n/a	n/a	0	0	n/a	n/a	n/a
1349.9758	1	31	n/a	n/a	1	n/a	n/a	n/a	n/a	n/a	-2.3283e-10	0	n/a	n/a	n/a
1351.9924	1	40	n/a	n/a	1	n/a	n/a	n/a	n/a	n/a	-2.3283e-10	0	n/a	n/a	n/a
1354.009	1	10	1030.9	1030.9	1	0	1	0	0.7	0.065847	4.6566e-10	0	0.9	0.82031	37
1355.0422	1	20	n/a	n/a	1	n/a	n/a	n/a	n/a	n/a	-2.3283e-10	0	n/a	n/a	n/a
1356.5742	1	80	n/a	n/a	1	n/a	n/a	n/a	n/a	n/a	-0.1	0	n/a	n/a	n/a
1356.6742	1	80	n/a	n/a	1	n/a	n/a	n/a	n/a	n/a	0	0	n/a	n/a	n/a
1356.8922	1	31	n/a	n/a	1	n/a	n/a	n/a	n/a	n/a	0.2	0	n/a	n/a	n/a
1358.9086	1	40	n/a	n/a	1	n/a	n/a	n/a	n/a	n/a	-0.2	0	n/a	n/a	n/a
1360.9252	1	10	658.6	658.6	1	0	1	0	0.6	0.28965	0.1	0	0.2	0.03125	38
1361.5918	1	20	n/a	n/a	1	n/a	n/a	n/a	n/a	n/a	-0.1	0	n/a	n/a	n/a
1363.0828	1	80	n/a	n/a	1	n/a	n/a	n/a	n/a	n/a	0	0	n/a	n/a	n/a
1363.1828	1	80	n/a	n/a	1	n/a	n/a	n/a	n/a	n/a	0	0	n/a	n/a	n/a
1363.3918	1	31	n/a	n/a	1	n/a	n/a	n/a	n/a	n/a	0.1	0	n/a	n/a	n/a
1365.4082	1	40	n/a	n/a	1	n/a	n/a	n/a	n/a	n/a	-0.1	0	n/a	n/a	n/a
1367.4248	1	10	4734.7	4734.7	1	0	1	0	0.5	0.79852	0	0	0.9	0.975	39
1372.1746	1	20	n/a	n/a	1	n/a	n/a	n/a	n/a	n/a	0.1	0	n/a	n/a	n/a
1373.9306	1	80	n/a	n/a	1	n/a	n/a	n/a	n/a	n/a	0	0	n/a	n/a	n/a
1374.0306	1	80	n/a	n/a	1	n/a	n/a	n/a	n/a	n/a	0	0	n/a	n/a	n/a
1374.241	1	30	n/a	n/a	1	n/a	n/a	n/a	n/a	n/a	-0.2	0	n/a	n/a	n/a
1376.2576	1	40	n/a	n/a	1	n/a	n/a	n/a	n/a	n/a	0.1	0	n/a	n/a	n/a
1378.2742	1	10	1453.2	1453.2	1	0	1	0	0.4	0.96359	-2.3283e-10	0	0.1	0.14239	40
1379.7408	1	20	n/a	n/a	1	n/a	n/a	n/a	n/a	n/a	0	0	n/a	n/a	n/a
1381.5858	1	80	n/a	n/a	1	n/a	n/a	n/a	n/a	n/a	0	0	n/a	n/a	n/a
1381.6858	1	80	n/a	n/a	1	n/a	n/a	n/a	n/a	n/a	0	0	n/a	n/a	n/a
1381.8906	1	30	n/a	n/a	1	n/a	n/a	n/a	n/a	n/a	-0.1	0	n/a	n/a	n/a
1383.9072	1	40	n/a	n/a	1	n/a	n/a	n/a	n/a	n/a	0.1	0	n/a	n/a	n/a
1464.3358	1	10	2381.6	2381.6	1	1	0	0	0	0	-0.3	0	0.5	0.5	1
1466.7356	1	20	n/a	n/a	1	n/a	n/a	n/a	n/a	n/a	-0.1	0	n/a	n/a	n/a
1468.0166	1	80	n/a	n/a	1	n/a	n/a	n/a	n/a	n/a	0	0	n/a	n/a	n/a
1468.1166	1	80	n/a	n/a	1	n/a	n/a	n/a	n/a	n/a	0	0	n/a	n/a	n/a
1468.3188	1	30	n/a	n/a	1	n/a	n/a	n/a	n/a	n/a	-2.3283e-10	0	n/a	n/a	n/a
1470.3354	1	10	733.9	733.9	1	1	0	0	0	0	-2.3283e-10	0	0.4	0.4	2
1471.0854	1	20	n/a	n/a	1	n/a	n/a	n/a	n/a	n/a	0.1	0	n/a	n/a	n/a
1472.3844	1	80	n/a	n/a	1	n/a	n/a	n/a	n/a	n/a	-0.1	0	n/a	n/a	n/a
1472.4844	1	80	n/a	n/a	1	n/a	n/a	n/a	n/a	n/a	0	0	n/a	n/a	n/a
1472.702	1	30	n/a	n/a	1	n/a	n/a	n/a	n/a	n/a	0.1	0	n/a	n/a	n/a
1474.7184	1	10	1006.7	1006.7	1	1	0	0	0	0	-0.2	0	0.1	0.1	3
1475.735	1	20	n/a	n/a	1	n/a	n/a	n/a	n/a	n/a	0	0	n/a	n/a	n/a
1477.266	1	80	n/a	n/a	1	n/a	n/a	n/a	n/a	n/a	0	0	n/a	n/a	n/a
1477.366	1	80	n/a	n/a	1	n/a	n/a	n/a	n/a	n/a	0	0	n/a	n/a	n/a
1477.5682	1	31	n/a	n/a	1	n/a	n/a	n/a	n/a	n/a	-2.3283e-10	0	n/a	n/a	n/a
1479.5848	1	10	892.2	892.2	1	1	0	0	0	0	0	0	0.2	0.2	4
1480.4848	1	20	n/a	n/a	1	n/a	n/a	n/a	n/a	n/a	0.1	0	n/a	n/a	n/a
1481.9218	1	80	n/a	n/a	1	n/a	n/a	n/a	n/a	n/a	-0.1	0	n/a	n/a	n/a
1482.0218	1	80	n/a	n/a	1	n/a	n/a	n/a	n/a	n/a	0	0	n/a	n/a	n/a
1482.2346	1	30	n/a	n/a	1	n/a	n/a	n/a	n/a	n/a	2.3283e-10	0	n/a	n/a	n/a
1484.2512	1	10	689.7	689.7	1	1	0	0	0	0	-2.3283e-10	0	0.1	0.1	5
1484.9512	1	20	n/a	n/a	1	n/a	n/a	n/a	n/a	n/a	0.1	0	n/a	n/a	n/a
1486.2182	1	80	n/a	n/a	1	n/a	n/a	n/a	n/a	n/a	-0.1	0	n/a	n/a	n/a
1486.3182	1	80	n/a	n/a	1	n/a	n/a	n/a	n/a	n/a	0	0	n/a	n/a	n/a
1486.5344	1	31	n/a	n/a	1	n/a	n/a	n/a	n/a	n/a	2.3283e-10	0	n/a	n/a	n/a
1488.551	1	10	1333.9	1333.9	1	1	0	0	0	0	0.1	0	0.8	0.8	6
1489.9008	1	20	n/a	n/a	1	n/a	n/a	n/a	n/a	n/a	-0.2	0	n/a	n/a	n/a
1491.815	1	80	n/a	n/a	1	n/a	n/a	n/a	n/a	n/a	0.2	0	n/a	n/a	n/a
1491.9148	1	80	n/a	n/a	1	n/a	n/a	n/a	n/a	n/a	-0.2	0	n/a	n/a	n/a
1492.1174	1	30	n/a	n/a	1	n/a	n/a	n/a	n/a	n/a	0.1	0	n/a	n/a	n/a
1494.134	1	10	1638.7	1638.7	1	1	0	0	0	0	0	0	0.8	0.8	7
1495.7838	1	20	n/a	n/a	1	n/a	n/a	n/a	n/a	n/a	-0.1	0	n/a	n/a	n/a
1497.1168	1	80	n/a	n/a	1	n/a	n/a	n/a	n/a	n/a	0	0	n/a	n/a	n/a
1497.2168	1	80	n/a	n/a	1	n/a	n/a	n/a	n/a	n/a	0	0	n/a	n/a	n/a
1497.4338	1	31	n/a	n/a	1	n/a	n/a	n/a	n/a	n/a	0.1	0	n/a	n/a	n/a
1499.4504	1	10	626.3	626.3	1	1	0	0	0	0	0.1	0	0.7	0.7	8
1500.0836	1	20	n/a	n/a	1	n/a	n/a	n/a	n/a	n/a	-0.1	0	n/a	n/a	n/a
1501.5496	1	80	n/a	n/a	1	n/a	n/a	n/a	n/a	n/a	-0.1	0	n/a	n/a	n/a
1501.6496	1	80	n/a	n/a	1	n/a	n/a	n/a	n/a	n/a	0	0	n/a	n/a	n/a
1501.8668	1	30	n/a	n/a	1	n/a	n/a	n/a	n/a	n/a	2.3283e-10	0	n/a	n/a	n/a
1503.8834	1	10	705.1	705.1	1	1	0	0	0	0	0.1	0	0.3	0.3	9
1504.6	1	20	n/a	n/a	1	n/a	n/a	n/a	n/a	n/a	-0.1	0	n/a	n/a	n/a
1506.33	1	80	n/a	n/a	1	n/a	n/a	n/a	n/a	n/a	0	0	n/a	n/a	n/a
1506.43	1	80	n/a	n/a	1	n/a	n/a	n/a	n/a	n/a	0	0	n/a	n/a	n/a
1506.6332	1	31	n/a	n/a	1	n/a	n/a	n/a	n/a	n/a	-2.3283e-10	0	n/a	n/a	n/a
1508.6498	1	10	802.6	802.6	1	1	0	0	0	0	0.1	0	0.1	0.1	10
1509.4664	1	20	n/a	n/a	1	n/a	n/a	n/a	n/a	n/a	-0.1	0	n/a	n/a	n/a
1511.1964	1	80	n/a	n/a	1	n/a	n/a	n/a	n/a	n/a	0	0	n/a	n/a	n/a
1511.2964	1	80	n/a	n/a	1	n/a	n/a	n/a	n/a	n/a	0	0	n/a	n/a	n/a
1511.4996	1	31	n/a	n/a	1	n/a	n/a	n/a	n/a	n/a	0	0	n/a	n/a	n/a
1522.5322	1	10	4135.7	4135.7	1	1	0	0	0.7	0.35155	-0.1	0	0.5	0.15362	11
1526.682	1	20	n/a	n/a	1	n/a	n/a	n/a	n/a	n/a	-2.3283e-10	0	n/a	n/a	n/a
1528.522	1	80	n/a	n/a	1	n/a	n/a	n/a	n/a	n/a	0	0	n/a	n/a	n/a
1528.622	1	80	n/a	n/a	1	n/a	n/a	n/a	n/a	n/a	0	0	n/a	n/a	n/a
1528.832	1	31	n/a	n/a	1	n/a	n/a	n/a	n/a	n/a	0.1	0	n/a	n/a	n/a
1530.8484	1	40	n/a	n/a	1	n/a	n/a	n/a	n/a	n/a	-0.1	0	n/a	n/a	n/a
1532.865	1	10	1354.8	1354.8	1	1	0	0	0.5	0.90965	0	0	0.9	0.975	12
1534.2316	1	20	n/a	n/a	1	n/a	n/a	n/a	n/a	n/a	0	0	n/a	n/a	n/a
1535.9726	1	80	n/a	n/a	1	n/a	n/a	n/a	n/a	n/a	0	0	n/a	n/a	n/a
1536.0726	1	80	n/a	n/a	1	n/a	n/a	n/a	n/a	n/a	0	0	n/a	n/a	n/a
1536.2814	1	31	n/a	n/a	1	n/a	n/a	n/a	n/a	n/a	-0.1	0	n/a	n/a	n/a
1538.298	1	40	n/a	n/a	1	n/a	n/a	n/a	n/a	n/a	0.1	0	n/a	n/a	n/a
1540.3146	1	10	1489	1489	1	1	0	0	0.7	0.10245	0	0	0.7	0.23905	13
1541.8144	1	20	n/a	n/a	1	n/a	n/a	n/a	n/a	n/a	-0.1	0	n/a	n/a	n/a
1542.8214	1	80	n/a	n/a	1	n/a	n/a	n/a	n/a	n/a	0	0	n/a	n/a	n/a
1542.9214	1	80	n/a	n/a	1	n/a	n/a	n/a	n/a	n/a	0	0	n/a	n/a	n/a
1543.131	1	30	n/a	n/a	1	n/a	n/a	n/a	n/a	n/a	0	0	n/a	n/a	n/a
1545.1476	1	40	n/a	n/a	1	n/a	n/a	n/a	n/a	n/a	0.1	0	n/a	n/a	n/a
1547.1642	1	10	1327.3	1327.3	1	1	0	0	0.8	0.25604	2.3283e-10	0	0.1	0.0625	14
1548.4974	1	20	n/a	n/a	1	n/a	n/a	n/a	n/a	n/a	-2.3283e-10	0	n/a	n/a	n/a
1550.0584	1	80	n/a	n/a	1	n/a	n/a	n/a	n/a	n/a	-0.1	0	n/a	n/a	n/a
1550.1584	1	80	n/a	n/a	1	n/a	n/a	n/a	n/a	n/a	0	0	n/a	n/a	n/a
1550.364	1	31	n/a	n/a	1	n/a	n/a	n/a	n/a	n/a	0.1	0	n/a	n/a	n/a
1552.3806	1	40	n/a	n/a	1	n/a	n/a	n/a	n/a	n/a	0	0	n/a	n/a	n/a
1554.397	1	10	1646.3	1646.3	1	1	0	0	0.6	0.16133	-0.1	0	0.8	0.74199	15
1556.047	1	20	n/a	n/a	1	n/a	n/a	n/a	n/a	n/a	0.1	0	n/a	n/a	n/a
1557.842	1	80	n/a	n/a	1	n/a	n/a	n/a	n/a	n/a	-0.1	0	n/a	n/a	n/a
1557.942	1	80	n/a	n/a	1	n/a	n/a	n/a	n/a	n/a	0	0	n/a	n/a	n/a
1558.1468	1	30	n/a	n/a	1	n/a	n/a	n/a	n/a	n/a	2.3283e-10	0	n/a	n/a	n/a
1560.1634	1	40	n/a	n/a	1	n/a	n/a	n/a	n/a	n/a	-2.3283e-10	0	n/a	n/a	n/a
1562.18	1	10	903.2	903.2	1	1	0	0	0.8	0.42709	0.1	0	0.6	0.70835	16
1563.0966	1	20	n/a	n/a	1	n/a	n/a	n/a	n/a	n/a	0	0	n/a	n/a	n/a
1564.5216	1	80	n/a	n/a	1	n/a	n/a	n/a	n/a	n/a	-0.1	0	n/a	n/a	n/a
1564.6216	1	80	n/a	n/a	1	n/a	n/a	n/a	n/a	n/a	0	0	n/a	n/a	n/a
1564.8298	1	30	n/a	n/a	1	n/a	n/a	n/a	n/a	n/a	-2.3283e-10	0	n/a	n/a	n/a
1566.8464	1	40	n/a	n/a	1	n/a	n/a	n/a	n/a	n/a	0.1	0	n/a	n/a	n/a
1568.8628	1	10	684.1	684.1	1	1	0	0	0.4	0.1567	-0.2	0	0.8	0.77113	17
1569.5628	1	20	n/a	n/a	1	n/a	n/a	n/a	n/a	n/a	0.1	0	n/a	n/a	n/a
1570.6438	1	80	n/a	n/a	1	n/a	n/a	n/a	n/a	n/a	-0.1	0	n/a	n/a	n/a
1570.7438	1	80	n/a	n/a	1	n/a	n/a	n/a	n/a	n/a	0	0	n/a	n/a	n/a
1570.946	1	31	n/a	n/a	1	n/a	n/a	n/a	n/a	n/a	2.3283e-10	0	n/a	n/a	n/a
1572.9626	1	40	n/a	n/a	1	n/a	n/a	n/a	n/a	n/a	0	0	n/a	n/a	n/a
1574.9792	1	10	1991.7	1991.7	1	1	0	0	0.5	0.58623	0.1	0	0.1	0.025	18
1576.979	1	20	n/a	n/a	1	n/a	n/a	n/a	n/a	n/a	-0.1	0	n/a	n/a	n/a
1578.491	1	80	n/a	n/a	1	n/a	n/a	n/a	n/a	n/a	0	0	n/a	n/a	n/a
1578.591	1	80	n/a	n/a	1	n/a	n/a	n/a	n/a	n/a	0	0	n/a	n/a	n/a
1578.7956	1	31	n/a	n/a	1	n/a	n/a	n/a	n/a	n/a	0	0	n/a	n/a	n/a
1580.8122	1	40	n/a	n/a	1	n/a	n/a	n/a	n/a	n/a	0.1	0	n/a	n/a	n/a
1582.8288	1	10	670	670	1	1	0	0	0.8	0.18647	0	0	0.7	0.24587	19
1583.512	1	20	n/a	n/a	1	n/a	n/a	n/a	n/a	n/a	-0.1	0	n/a	n/a	n/a
1584.907	1	80	n/a	n/a	1	n/a	n/a	n/a	n/a	n/a	0	0	n/a	n/a	n/a
1585.007	1	80	n/a	n/a	1	n/a	n/a	n/a	n/a	n/a	0	0	n/a	n/a	n/a
1585.212	1	31	n/a	n/a	1	n/a	n/a	n/a	n/a	n/a	0.1	0	n/a	n/a	n/a
1587.2284	1	40	n/a	n/a	1	n/a	n/a	n/a	n/a	n/a	-0.1	0	n/a	n/a	n/a
1589.245	1	10	1661.5	1661.5	1	1	0	0	0.8	0.45273	4.6566e-10	0	0.8	0.9375	20
1590.9116	1	20	n/a	n/a	1	n/a	n/a	n/a	n/a	n/a	0	0	n/a	n/a	n/a
1592.0246	1	80	n/a	n/a	1	n/a	n/a	n/a	n/a	n/a	0	0	n/a	n/a	n/a
1592.1246	1	80	n/a	n/a	1	n/a	n/a	n/a	n/a	n/a	0	0	n/a	n/a	n/a
1592.3282	1	31	n/a	n/a	1	n/a	n/a	n/a	n/a	n/a	-2.3283e-10	0	n/a	n/a	n/a
1594.3448	1	40	n/a	n/a	1	n/a	n/a	n/a	n/a	n/a	0.1	0	n/a	n/a	n/a
1605.3774	1	10	968.8	968.8	1	1	0	0	0	0	-0.1	0	0.7	0.7	21
1606.3606	1	20	n/a	n/a	1	n/a	n/a	n/a	n/a	n/a	-0.1	0	n/a	n/a	n/a
1607.4036	1	80	n/a	n/a	1	n/a	n/a	n/a	n/a	n/a	0	0	n/a	n/a	n/a
1607.5036	1	80	n/a	n/a	1	n/a	n/a	n/a	n/a	n/a	0	0	n/a	n/a	n/a
1607.7106	1	31	n/a	n/a	1	n/a	n/a	n/a	n/a	n/a	0	0	n/a	n/a	n/a
1609.7272	1	10	555	555	1	1	0	0	0	0	0.1	0	0.9	0.9	22
1610.2938	1	20	n/a	n/a	1	n/a	n/a	n/a	n/a	n/a	0	0	n/a	n/a	n/a
1611.9908	1	80	n/a	n/a	1	n/a	n/a	n/a	n/a	n/a	-0.1	0	n/a	n/a	n/a
1612.0908	1	80	n/a	n/a	1	n/a	n/a	n/a	n/a	n/a	0	0	n/a	n/a	n/a
1612.2936	1	31	n/a	n/a	1	n/a	n/a	n/a	n/a	n/a	2.3283e-10	0	n/a	n/a	n/a
1614.3102	1	10	947.8	947.8	1	1	0	0	0	0	-2.3283e-10	0	0.1	0.1	23
1615.2602	1	20	n/a	n/a	1	n/a	n/a	n/a	n/a	n/a	0.1	0	n/a	n/a	n/a
1616.9742	1	80	n/a	n/a	1	n/a	n/a	n/a	n/a	n/a	-0.1	0	n/a	n/a	n/a
1617.0742	1	80	n/a	n/a	1	n/a	n/a	n/a	n/a	n/a	0	0	n/a	n/a	n/a
1617.2766	1	31	n/a	n/a	1	n/a	n/a	n/a	n/a	n/a	-0.1	0	n/a	n/a	n/a
1619.2932	1	10	572.7	572.7	1	1	0	0	0	0	0.1	0	0.2	0.2	24
1619.8766	1	20	n/a	n/a	1	n/a	n/a	n/a	n/a	n/a	0.1	0	n/a	n/a	n/a
1621.3896	1	80	n/a	n/a	1	n/a	n/a	n/a	n/a	n/a	-0.1	0	n/a	n/a	n/a
1621.4896	1	80	n/a	n/a	1	n/a	n/a	n/a	n/a	n/a	0	0	n/a	n/a	n/a
1621.693	1	31	n/a	n/a	1	n/a	n/a	n/a	n/a	n/a	-0.1	0	n/a	n/a	n/a
1623.7096	1	10	620.1	620.1	1	1	0	0	0	0	0	0	0.7	0.7	25
1624.343	1	20	n/a	n/a	1	n/a	n/a	n/a	n/a	n/a	0.1	0	n/a	n/a	n/a
1625.76	1	80	n/a	n/a	1	n/a	n/a	n/a	n/a	n/a	0	0	n/a	n/a	n/a
1625.86	1	80	n/a	n/a	1	n/a	n/a	n/a	n/a	n/a	0	0	n/a	n/a	n/a
1626.0762	1	31	n/a	n/a	1	n/a	n/a	n/a	n/a	n/a	-2.3283e-10	0	n/a	n/a	n/a
1628.0928	1	10	1420.9	1420.9	1	1	0	0	0	0	0	0	0.4	0.4	26
1629.526	1	20	n/a	n/a	1	n/a	n/a	n/a	n/a	n/a	2.3283e-10	0	n/a	n/a	n/a
1631.014	1	80	n/a	n/a	1	n/a	n/a	n/a	n/a	n/a	0	0	n/a	n/a	n/a
1631.114	1	80	n/a	n/a	1	n/a	n/a	n/a	n/a	n/a	0	0	n/a	n/a	n/a
1631.3258	1	30	n/a	n/a	1	n/a	n/a	n/a	n/a	n/a	-0.1	0	n/a	n/a	n/a
1633.3424	1	10	715.1	715.1	1	1	0	0	0	0	-2.3283e-10	0	0.9	0.9	27
1634.0756	1	20	n/a	n/a	1	n/a	n/a	n/a	n/a	n/a	-0.1	0	n/a	n/a	n/a
1635.2496	1	80	n/a	n/a	1	n/a	n/a	n/a	n/a	n/a	0	0	n/a	n/a	n/a
1635.3496	1	80	n/a	n/a	1	n/a	n/a	n/a	n/a	n/a	0	0	n/a	n/a	n/a
1635.559	1	31	n/a	n/a	1	n/a	n/a	n/a	n/a	n/a	0.2	0	n/a	n/a	n/a
1637.5754	1	10	593.9	593.9	1	1	0	0	0	0	-0.2	0	0.1	0.1	28
1638.1754	1	20	n/a	n/a	1	n/a	n/a	n/a	n/a	n/a	0.1	0	n/a	n/a	n/a
1639.7054	1	80	n/a	n/a	1	n/a	n/a	n/a	n/a	n/a	-0.1	0	n/a	n/a	n/a
1639.8054	1	80	n/a	n/a	1	n/a	n/a	n/a	n/a	n/a	0	0	n/a	n/a	n/a
1640.0086	1	31	n/a	n/a	1	n/a	n/a	n/a	n/a	n/a	0	0	n/a	n/a	n/a
1642.0252	1	10	1568.1	1568.1	1	1	0	0	0	0	0.1	0	0.6	0.6	29
1643.6084	1	20	n/a	n/a	1	n/a	n/a	n/a	n/a	n/a	-0.1	0	n/a	n/a	n/a
1645.2254	1	80	n/a	n/a	1	n/a	n/a	n/a	n/a	n/a	0	0	n/a	n/a	n/a
1645.3254	1	80	n/a	n/a	1	n/a	n/a	n/a	n/a	n/a	0	0	n/a	n/a	n/a
1645.5416	1	31	n/a	n/a	1	n/a	n/a	n/a	n/a	n/a	0	0	n/a	n/a	n/a
1647.5582	1	10	1474.9	1474.9	1	1	0	0	0	0	2.3283e-10	0	0.9	0.9	30
1649.0414	1	20	n/a	n/a	1	n/a	n/a	n/a	n/a	n/a	-2.3283e-10	0	n/a	n/a	n/a
1650.4024	1	80	n/a	n/a	1	n/a	n/a	n/a	n/a	n/a	0	0	n/a	n/a	n/a
1650.5024	1	80	n/a	n/a	1	n/a	n/a	n/a	n/a	n/a	0	0	n/a	n/a	n/a
1650.708	1	31	n/a	n/a	1	n/a	n/a	n/a	n/a	n/a	0	0	n/a	n/a	n/a
1661.7408	1	10	1196.2	1196.2	1	1	0	0	0.7	0.33137	0.1	0	0.5	0.10652	31
1662.9406	1	20	n/a	n/a	1	n/a	n/a	n/a	n/a	n/a	-0.1	0	n/a	n/a	n/a
1664.3906	1	80	n/a	n/a	1	n/a	n/a	n/a	n/a	n/a	-0.1	0	n/a	n/a	n/a
1664.4906	1	80	n/a	n/a	1	n/a	n/a	n/a	n/a	n/a	0	0	n/a	n/a	n/a
1664.7072	1	31	n/a	n/a	1	n/a	n/a	n/a	n/a	n/a	0.1	0	n/a	n/a	n/a
1666.7238	1	40	n/a	n/a	1	n/a	n/a	n/a	n/a	n/a	0	0	n/a	n/a	n/a
1668.7404	1	10	916.4	916.4	1	1	0	0	0.5	0.60719	0.1	0	0.3	0.20719	32
1669.6736	1	20	n/a	n/a	1	n/a	n/a	n/a	n/a	n/a	-0.1	0	n/a	n/a	n/a
1671.4016	1	80	n/a	n/a	1	n/a	n/a	n/a	n/a	n/a	0	0	n/a	n/a	n/a
1671.5016	1	80	n/a	n/a	1	n/a	n/a	n/a	n/a	n/a	0	0	n/a	n/a	n/a
1671.7068	1	31	n/a	n/a	1	n/a	n/a	n/a	n/a	n/a	2.3283e-10	0	n/a	n/a	n/a
1673.7234	1	40	n/a	n/a	1	n/a	n/a	n/a	n/a	n/a	-2.3283e-10	0	n/a	n/a	n/a
1675.7398	1	10	716.7	716.7	1	1	0	0	0.6	0.86735	-0.1	0	0.1	0.051018	33
1676.4732	1	20	n/a	n/a	1	n/a	n/a	n/a	n/a	n/a	0.1	0	n/a	n/a	n/a
1677.9272	1	80	n/a	n/a	1	n/a	n/a	n/a	n/a	n/a	0	0	n/a	n/a	n/a
1678.0272	1	80	n/a	n/a	1	n/a	n/a	n/a	n/a	n/a	0	0	n/a	n/a	n/a
1678.2398	1	30	n/a	n/a	1	n/a	n/a	n/a	n/a	n/a	0	0	n/a	n/a	n/a
1680.2562	1	40	n/a	n/a	1	n/a	n/a	n/a	n/a	n/a	-0.2	0	n/a	n/a	n/a
1682.2728	1	10	2727.6	2727.6	1	1	0	0	0.4	0.91424	0.1	0	0.6	0.94283	34
1685.006	1	20	n/a	n/a	1	n/a	n/a	n/a	n/a	n/a	-2.3283e-10	0	n/a	n/a	n/a
1686.449	1	80	n/a	n/a	1	n/a	n/a	n/a	n/a	n/a	0	0	n/a	n/a	n/a
1686.549	1	80	n/a	n/a	1	n/a	n/a	n/a	n/a	n/a	0	0	n/a	n/a	n/a
1686.756	1	31	n/a	n/a	1	n/a	n/a	n/a	n/a	n/a	0.1	0	n/a	n/a	n/a
1688.7724	1	40	n/a	n/a	1	n/a	n/a	n/a	n/a	n/a	-0.1	0	n/a	n/a	n/a
1690.789	1	10	739.2	739.2	1	1	0	0	0.8	0.58061	0	0	0.4	0.32244	35
1691.539	1	20	n/a	n/a	1	n/a	n/a	n/a	n/a	n/a	0	0	n/a	n/a	n/a
1692.81	1	80	n/a	n/a	1	n/a	n/a	n/a	n/a	n/a	0	0	n/a	n/a	n/a
1692.91	1	80	n/a	n/a	1	n/a	n/a	n/a	n/a	n/a	0	0	n/a	n/a	n/a
1693.1222	1	30	n/a	n/a	1	n/a	n/a	n/a	n/a	n/a	2.3283e-10	0	n/a	n/a	n/a
1695.1388	1	40	n/a	n/a	1	n/a	n/a	n/a	n/a	n/a	0	0	n/a	n/a	n/a
1697.1552	1	10	804.8	804.8	1	1	0	0	0.7	0.05444	-0.1	0	0.9	0.79369	36
1697.972	1	20	n/a	n/a	1	n/a	n/a	n/a	n/a	n/a	0.2	0	n/a	n/a	n/a
1699.784	1	80	n/a	n/a	1	n/a	n/a	n/a	n/a	n/a	-0.1	0	n/a	n/a	n/a
1699.884	1	80	n/a	n/a	1	n/a	n/a	n/a	n/a	n/a	0	0	n/a	n/a	n/a
1700.0884	1	31	n/a	n/a	1	n/a	n/a	n/a	n/a	n/a	-0.1	0	n/a	n/a	n/a
1702.105	1	40	n/a	n/a	1	n/a	n/a	n/a	n/a	n/a	4.6566e-10	0	n/a	n/a	n/a
1704.1216	1	10	670.4	670.4	1	1	0	0	0.5	0.93517	0.1	0	0.1	0.13517	37
1704.8048	1	20	n/a	n/a	1	n/a	n/a	n/a	n/a	n/a	-0.1	0	n/a	n/a	n/a
1706.3708	1	80	n/a	n/a	1	n/a	n/a	n/a	n/a	n/a	0	0	n/a	n/a	n/a
1706.4708	1	80	n/a	n/a	1	n/a	n/a	n/a	n/a	n/a	0	0	n/a	n/a	n/a
1706.688	1	31	n/a	n/a	1	n/a	n/a	n/a	n/a	n/a	2.3283e-10	0	n/a	n/a	n/a
1708.7046	1	40	n/a	n/a	1	n/a	n/a	n/a	n/a	n/a	0	0	n/a	n/a	n/a
1710.7212	1	10	790.7	790.7	1	1	0	0	0.7	0.15521	0.1	0	0.7	0.36217	38
1711.5212	1	20	n/a	n/a	1	n/a	n/a	n/a	n/a	n/a	0	0	n/a	n/a	n/a
1713.2272	1	80	n/a	n/a	1	n/a	n/a	n/a	n/a	n/a	0	0	n/a	n/a	n/a
1713.3272	1	80	n/a	n/a	1	n/a	n/a	n/a	n/a	n/a	0	0	n/a	n/a	n/a
1713.5376	1	30	n/a	n/a	1	n/a	n/a	n/a	n/a	n/a	-0.2	0	n/a	n/a	n/a
1715.5542	1	40	n/a	n/a	1	n/a	n/a	n/a	n/a	n/a	0.1	0	n/a	n/a	n/a
1717.5708	1	10	724.8	724.8	1	1	0	0	0.6	0.92033	0	0	0.3	0.63049	39
1718.304	1	20	n/a	n/a	1	n/a	n/a	n/a	n/a	n/a	-0.1	0	n/a	n/a	n/a
1720.091	1	80	n/a	n/a	1	n/a	n/a	n/a	n/a	n/a	0	0	n/a	n/a	n/a
1720.191	1	80	n/a	n/a	1	n/a	n/a	n/a	n/a	n/a	0	0	n/a	n/a	n/a
1720.404	1	31	n/a	n/a	1	n/a	n/a	n/a	n/a	n/a	0.2	0	n/a	n/a	n/a
1722.4204	1	40	n/a	n/a	1	n/a	n/a	n/a	n/a	n/a	-0.2	0	n/a	n/a	n/a
1724.437	1	10	866.4	866.4	1	1	0	0	0.8	0.21623	0	0	0.8	0.86492	40
1725.3202	1	20	n/a	n/a	1	n/a	n/a	n/a	n/a	n/a	-2.3283e-10	0	n/a	n/a	n/a
1726.6012	1	80	n/a	n/a	1	n/a	n/a	n/a	n/a	n/a	-0.1	0	n/a	n/a	n/a
1726.7012	1	80	n/a	n/a	1	n/a	n/a	n/a	n/a	n/a	0	0	n/a	n/a	n/a
1726.9036	1	30	n/a	n/a	1	n/a	n/a	n/a	n/a	n/a	0.2	0	n/a	n/a	n/a
1728.92	1	40	n/a	n/a	1	n/a	n/a	n/a	n/a	n/a	-0.1	0	n/a	n/a	n/a
1777.1672	1	10	935	935	1	0	1	0	0	0	-0.2	0	0.2	0.2	1
1778.1172	1	20	n/a	n/a	1	n/a	n/a	n/a	n/a	n/a	0.1	0	n/a	n/a	n/a
1779.2602	1	80	n/a	n/a	1	n/a	n/a	n/a	n/a	n/a	0	0	n/a	n/a	n/a
1779.3602	1	80	n/a	n/a	1	n/a	n/a	n/a	n/a	n/a	0	0	n/a	n/a	n/a
1779.567	1	31	n/a	n/a	1	n/a	n/a	n/a	n/a	n/a	-0.1	0	n/a	n/a	n/a
1781.5836	1	10	630.5	630.5	1	0	1	0	0	0	0	0	0.6	0.6	2
1782.217	1	20	n/a	n/a	1	n/a	n/a	n/a	n/a	n/a	0.1	0	n/a	n/a	n/a
1783.892	1	80	n/a	n/a	1	n/a	n/a	n/a	n/a	n/a	0	0	n/a	n/a	n/a
1783.992	1	80	n/a	n/a	1	n/a	n/a	n/a	n/a	n/a	0	0	n/a	n/a	n/a
1784.2002	1	31	n/a	n/a	1	n/a	n/a	n/a	n/a	n/a	-2.3283e-10	0	n/a	n/a	n/a
1786.2166	1	10	909.3	909.3	1	0	1	0	0	0	-0.2	0	0.6	0.6	3
1787.1332	1	20	n/a	n/a	1	n/a	n/a	n/a	n/a	n/a	-2.3283e-10	0	n/a	n/a	n/a
1788.5322	1	80	n/a	n/a	1	n/a	n/a	n/a	n/a	n/a	0	0	n/a	n/a	n/a
1788.6322	1	80	n/a	n/a	1	n/a	n/a	n/a	n/a	n/a	0	0	n/a	n/a	n/a
1788.8498	1	30	n/a	n/a	1	n/a	n/a	n/a	n/a	n/a	0	0	n/a	n/a	n/a
1790.8664	1	10	787.6	787.6	1	0	1	0	0	0	0.1	0	0.1	0.1	4
1791.6664	1	20	n/a	n/a	1	n/a	n/a	n/a	n/a	n/a	0	0	n/a	n/a	n/a
1793.4654	1	80	n/a	n/a	1	n/a	n/a	n/a	n/a	n/a	0	0	n/a	n/a	n/a
1793.5654	1	80	n/a	n/a	1	n/a	n/a	n/a	n/a	n/a	0	0	n/a	n/a	n/a
1793.783	1	31	n/a	n/a	1	n/a	n/a	n/a	n/a	n/a	0.1	0	n/a	n/a	n/a
1795.7994	1	10	1022.4	1022.4	1	0	1	0	0	0	-0.2	0	0.6	0.6	5
1796.8328	1	20	n/a	n/a	1	n/a	n/a	n/a	n/a	n/a	0.1	0	n/a	n/a	n/a
1798.7918	1	80	n/a	n/a	1	n/a	n/a	n/a	n/a	n/a	0	0	n/a	n/a	n/a
1798.8918	1	80	n/a	n/a	1	n/a	n/a	n/a	n/a	n/a	0	0	n/a	n/a	n/a
1799.0992	1	30	n/a	n/a	1	n/a	n/a	n/a	n/a	n/a	-0.1	0	n/a	n/a	n/a
1801.1158	1	10	457.9	457.9	1	0	1	0	0	0	0	0	0.3	0.3	6
1801.5824	1	20	n/a	n/a	1	n/a	n/a	n/a	n/a	n/a	-2.3283e-10	0	n/a	n/a	n/a
1803.2884	1	80	n/a	n/a	1	n/a	n/a	n/a	n/a	n/a	0	0	n/a	n/a	n/a
1803.3884	1	80	n/a	n/a	1	n/a	n/a	n/a	n/a	n/a	0	0	n/a	n/a	n/a
1803.599	1	31	n/a	n/a	1	n/a	n/a	n/a	n/a	n/a	0	0	n/a	n/a	n/a
1805.6156	1	10	1414.1	1414.1	1	0	1	0	0	0	0.1	0	0.3	0.3	7
1807.0322	1	20	n/a	n/a	1	n/a	n/a	n/a	n/a	n/a	2.3283e-10	0	n/a	n/a	n/a
1808.5942	1	80	n/a	n/a	1	n/a	n/a	n/a	n/a	n/a	0	0	n/a	n/a	n/a
1808.6942	1	80	n/a	n/a	1	n/a	n/a	n/a	n/a	n/a	0	0	n/a	n/a	n/a
1808.8986	1	30	n/a	n/a	1	n/a	n/a	n/a	n/a	n/a	-0.2	0	n/a	n/a	n/a
1810.9152	1	10	642.3	642.3	1	0	1	0	0	0	0.1	0	0.1	0.1	8
1811.5652	1	20	n/a	n/a	1	n/a	n/a	n/a	n/a	n/a	0	0	n/a	n/a	n/a
1812.6812	1	80	n/a	n/a	1	n/a	n/a	n/a	n/a	n/a	0	0	n/a	n/a	n/a
1812.7812	1	80	n/a	n/a	1	n/a	n/a	n/a	n/a	n/a	0	0	n/a	n/a	n/a
1812.9984	1	31	n/a	n/a	1	n/a	n/a	n/a	n/a	n/a	-2.3283e-10	0	n/a	n/a	n/a
1815.015	1	10	670.4	670.4	1	0	1	0	0	0	0	0	0.8	0.8	9
1815.6982	1	20	n/a	n/a	1	n/a	n/a	n/a	n/a	n/a	-0.1	0	n/a	n/a	n/a
1817.5092	1	80	n/a	n/a	1	n/a	n/a	n/a	n/a	n/a	0	0	n/a	n/a	n/a
1817.6092	1	80	n/a	n/a	1	n/a	n/a	n/a	n/a	n/a	0	0	n/a	n/a	n/a
1817.8148	1	31	n/a	n/a	1	n/a	n/a	n/a	n/a	n/a	0.1	0	n/a	n/a	n/a
1819.8314	1	10	1853.9	1853.9	1	0	1	0	0	0	-2.3283e-10	0	0.6	0.6	10
1821.698	1	20	n/a	n/a	1	n/a	n/a	n/a	n/a	n/a	0	0	n/a	n/a	n/a
1823.164	1	80	n/a	n/a	1	n/a	n/a	n/a	n/a	n/a	0	0	n/a	n/a	n/a
1823.264	1	80	n/a	n/a	1	n/a	n/a	n/a	n/a	n/a	0	0	n/a	n/a	n/a
1823.4812	1	30	n/a	n/a	1	n/a	n/a	n/a	n/a	n/a	2.3283e-10	0	n/a	n/a	n/a
1834.5138	1	10	1059.1	1059.1	1	0	1	0	0.7	0.80106	-0.1	0	0.4	0.86915	11
1835.5804	1	20	n/a	n/a	1	n/a	n/a	n/a	n/a	n/a	-2.3283e-10	0	n/a	n/a	n/a
1837.4754	1	80	n/a	n/a	1	n/a	n/a	n/a	n/a	n/a	-0.1	0	n/a	n/a	n/a
1837.5754	1	80	n/a	n/a	1	n/a	n/a	n/a	n/a	n/a	0	0	n/a	n/a	n/a
1837.7802	1	30	n/a	n/a	1	n/a	n/a	n/a	n/a	n/a	2.3283e-10	0	n/a	n/a	n/a
1839.7968	1	40	n/a	n/a	1	n/a	n/a	n/a	n/a	n/a	0	0	n/a	n/a	n/a
1841.8134	1	10	2015.4	2015.4	1	0	1	0	0.4	0.084637	0.1	0	0.4	0.056424	12
1843.8466	1	20	n/a	n/a	1	n/a	n/a	n/a	n/a	n/a	4.6566e-10	0	n/a	n/a	n/a
1845.1456	1	80	n/a	n/a	1	n/a	n/a	n/a	n/a	n/a	-0.1	0	n/a	n/a	n/a
1845.2456	1	80	n/a	n/a	1	n/a	n/a	n/a	n/a	n/a	0	0	n/a	n/a	n/a
1845.4632	1	30	n/a	n/a	1	n/a	n/a	n/a	n/a	n/a	0.1	0	n/a	n/a	n/a
1847.4798	1	40	n/a	n/a	1	n/a	n/a	n/a	n/a	n/a	0	0	n/a	n/a	n/a
1849.4962	1	10	1148.4	1148.4	1	0	1	0	0.7	0.56636	-0.1	0	0.4	0.3215	13
1850.6628	1	20	n/a	n/a	1	n/a	n/a	n/a	n/a	n/a	0	0	n/a	n/a	n/a
1852.478	1	80	n/a	n/a	1	n/a	n/a	n/a	n/a	n/a	0.1	0	n/a	n/a	n/a
1852.578	1	80	n/a	n/a	1	n/a	n/a	n/a	n/a	n/a	0	0	n/a	n/a	n/a
1852.7794	1	30	n/a	n/a	1	n/a	n/a	n/a	n/a	n/a	-0.1	0	n/a	n/a	n/a
1854.796	1	40	n/a	n/a	1	n/a	n/a	n/a	n/a	n/a	0.1	0	n/a	n/a	n/a
1856.8126	1	10	551.9	551.9	1	0	1	0	0.4	0.7942	4.6566e-10	0	0.1	0.029465	14
1857.3792	1	20	n/a	n/a	1	n/a	n/a	n/a	n/a	n/a	-2.3283e-10	0	n/a	n/a	n/a
1859.0452	1	80	n/a	n/a	1	n/a	n/a	n/a	n/a	n/a	-0.1	0	n/a	n/a	n/a
1859.1452	1	80	n/a	n/a	1	n/a	n/a	n/a	n/a	n/a	0	0	n/a	n/a	n/a
1859.3624	1	31	n/a	n/a	1	n/a	n/a	n/a	n/a	n/a	-2.3283e-10	0	n/a	n/a	n/a
1861.3788	1	40	n/a	n/a	1	n/a	n/a	n/a	n/a	n/a	-0.1	0	n/a	n/a	n/a
1863.3954	1	10	640.8	640.8	1	0	1	0	0.4	0.95001	2.3283e-10	0	0.1	0.13334	15
1864.0454	1	20	n/a	n/a	1	n/a	n/a	n/a	n/a	n/a	0.1	0	n/a	n/a	n/a
1865.9314	1	80	n/a	n/a	1	n/a	n/a	n/a	n/a	n/a	-0.1	0	n/a	n/a	n/a
1866.0314	1	80	n/a	n/a	1	n/a	n/a	n/a	n/a	n/a	0	0	n/a	n/a	n/a
1866.2452	1	31	n/a	n/a	1	n/a	n/a	n/a	n/a	n/a	-2.3283e-10	0	n/a	n/a	n/a
1868.2618	1	40	n/a	n/a	1	n/a	n/a	n/a	n/a	n/a	0	0	n/a	n/a	n/a
1870.2784	1	10	1069.8	1069.8	1	0	1	0	0.7	0.88224	0.1	0	0.3	0.72523	16
1871.3616	1	20	n/a	n/a	1	n/a	n/a	n/a	n/a	n/a	-0.1	0	n/a	n/a	n/a
1872.6826	1	80	n/a	n/a	1	n/a	n/a	n/a	n/a	n/a	0	0	n/a	n/a	n/a
1872.7826	1	80	n/a	n/a	1	n/a	n/a	n/a	n/a	n/a	0	0	n/a	n/a	n/a
1872.9948	1	31	n/a	n/a	1	n/a	n/a	n/a	n/a	n/a	-2.3283e-10	0	n/a	n/a	n/a
1875.0114	1	40	n/a	n/a	1	n/a	n/a	n/a	n/a	n/a	2.3283e-10	0	n/a	n/a	n/a
1877.028	1	10	944	944	1	0	1	0	0.8	0.39558	0.1	0	0.9	0.9375	17
1877.978	1	20	n/a	n/a	1	n/a	n/a	n/a	n/a	n/a	0	0	n/a	n/a	n/a
1879.5996	1	80	n/a	n/a	1	n/a	n/a	n/a	n/a	n/a	-0.2	0	n/a	n/a	n/a
1879.6996	1	80	n/a	n/a	1	n/a	n/a	n/a	n/a	n/a	0	0	n/a	n/a	n/a
1879.9112	1	31	n/a	n/a	1	n/a	n/a	n/a	n/a	n/a	0.2	0	n/a	n/a	n/a
1881.9276	1	40	n/a	n/a	1	n/a	n/a	n/a	n/a	n/a	-0.2	0	n/a	n/a	n/a
1883.9442	1	10	1435.6	1435.6	1	0	1	0	0.4	0.42388	0.1	0	0.4	0.28258	18
1885.3942	1	20	n/a	n/a	1	n/a	n/a	n/a	n/a	n/a	0	0	n/a	n/a	n/a
1887.2192	1	80	n/a	n/a	1	n/a	n/a	n/a	n/a	n/a	0	0	n/a	n/a	n/a
1887.3192	1	80	n/a	n/a	1	n/a	n/a	n/a	n/a	n/a	0	0	n/a	n/a	n/a
1887.5274	1	31	n/a	n/a	1	n/a	n/a	n/a	n/a	n/a	2.3283e-10	0	n/a	n/a	n/a
1889.544	1	40	n/a	n/a	1	n/a	n/a	n/a	n/a	n/a	0.1	0	n/a	n/a	n/a
1891.5604	1	10	683.2	683.2	1	0	1	0	0.5	0.77216	-0.2	0	0.9	0.975	19
1892.2604	1	20	n/a	n/a	1	n/a	n/a	n/a	n/a	n/a	0.1	0	n/a	n/a	n/a
1893.3114	1	80	n/a	n/a	1	n/a	n/a	n/a	n/a	n/a	-0.1	0	n/a	n/a	n/a
1893.4114	1	80	n/a	n/a	1	n/a	n/a	n/a	n/a	n/a	0	0	n/a	n/a	n/a
1893.627	1	31	n/a	n/a	1	n/a	n/a	n/a	n/a	n/a	0.1	0	n/a	n/a	n/a
1895.6436	1	40	n/a	n/a	1	n/a	n/a	n/a	n/a	n/a	0	0	n/a	n/a	n/a
1897.66	1	10	663.5	663.5	1	0	1	0	0.6	0.94274	-0.1	0	0.1	0.16411	20
1898.3268	1	20	n/a	n/a	1	n/a	n/a	n/a	n/a	n/a	0.1	0	n/a	n/a	n/a
1899.3818	1	80	n/a	n/a	1	n/a	n/a	n/a	n/a	n/a	0	0	n/a	n/a	n/a
1899.4818	1	80	n/a	n/a	1	n/a	n/a	n/a	n/a	n/a	0	0	n/a	n/a	n/a
1899.6932	1	31	n/a	n/a	1	n/a	n/a	n/a	n/a	n/a	-0.2	0	n/a	n/a	n/a
1901.7098	1	40	n/a	n/a	1	n/a	n/a	n/a	n/a	n/a	0.1	0	n/a	n/a	n/a
1912.7426	1	10	1532.7	1532.7	1	0	1	0	0	0	0.1	0	0.3	0.3	21
1914.2924	1	20	n/a	n/a	1	n/a	n/a	n/a	n/a	n/a	-0.2	0	n/a	n/a	n/a
1915.9744	1	80	n/a	n/a	1	n/a	n/a	n/a	n/a	n/a	0	0	n/a	n/a	n/a
1916.0744	1	80	n/a	n/a	1	n/a	n/a	n/a	n/a	n/a	0	0	n/a	n/a	n/a
1916.2924	1	30	n/a	n/a	1	n/a	n/a	n/a	n/a	n/a	0.1	0	n/a	n/a	n/a
1918.3088	1	10	2302.1	2302.1	1	0	1	0	0	0	-0.1	0	0.5	0.5	22
1920.6254	1	20	n/a	n/a	1	n/a	n/a	n/a	n/a	n/a	0.1	0	n/a	n/a	n/a
1921.6854	1	80	n/a	n/a	1	n/a	n/a	n/a	n/a	n/a	-0.1	0	n/a	n/a	n/a
1921.7854	1	80	n/a	n/a	1	n/a	n/a	n/a	n/a	n/a	0	0	n/a	n/a	n/a
1921.992	1	31	n/a	n/a	1	n/a	n/a	n/a	n/a	n/a	0.1	0	n/a	n/a	n/a
1924.0086	1	10	618.4	618.4	1	0	1	0	0	0	0	0	0.7	0.7	23
1924.6418	1	20	n/a	n/a	1	n/a	n/a	n/a	n/a	n/a	-0.1	0	n/a	n/a	n/a
1926.5048	1	80	n/a	n/a	1	n/a	n/a	n/a	n/a	n/a	0	0	n/a	n/a	n/a
1926.6048	1	80	n/a	n/a	1	n/a	n/a	n/a	n/a	n/a	0	0	n/a	n/a	n/a
1926.8084	1	31	n/a	n/a	1	n/a	n/a	n/a	n/a	n/a	0.1	0	n/a	n/a	n/a
1928.825	1	10	1049.9	1049.9	1	0	1	0	0	0	0	0	0.3	0.3	24
1929.8916	1	20	n/a	n/a	1	n/a	n/a	n/a	n/a	n/a	0	0	n/a	n/a	n/a
1931.3516	1	80	n/a	n/a	1	n/a	n/a	n/a	n/a	n/a	0	0	n/a	n/a	n/a
1931.4516	1	80	n/a	n/a	1	n/a	n/a	n/a	n/a	n/a	0	0	n/a	n/a	n/a
1931.658	1	31	n/a	n/a	1	n/a	n/a	n/a	n/a	n/a	-0.2	0	n/a	n/a	n/a
1933.6746	1	10	1560.1	1560.1	1	0	1	0	0	0	0.1	0	0.3	0.3	25
1935.2412	1	20	n/a	n/a	1	n/a	n/a	n/a	n/a	n/a	2.3283e-10	0	n/a	n/a	n/a
1936.5072	1	80	n/a	n/a	1	n/a	n/a	n/a	n/a	n/a	0	0	n/a	n/a	n/a
1936.6072	1	80	n/a	n/a	1	n/a	n/a	n/a	n/a	n/a	0	0	n/a	n/a	n/a
1936.8244	1	31	n/a	n/a	1	n/a	n/a	n/a	n/a	n/a	-2.3283e-10	0	n/a	n/a	n/a
1938.841	1	10	1785.6	1785.6	1	0	1	0	0	0	0	0	0.7	0.7	26
1940.6408	1	20	n/a	n/a	1	n/a	n/a	n/a	n/a	n/a	-0.1	0	n/a	n/a	n/a
1942.2678	1	80	n/a	n/a	1	n/a	n/a	n/a	n/a	n/a	0	0	n/a	n/a	n/a
1942.3678	1	80	n/a	n/a	1	n/a	n/a	n/a	n/a	n/a	0	0	n/a	n/a	n/a
1942.574	1	31	n/a	n/a	1	n/a	n/a	n/a	n/a	n/a	-2.3283e-10	0	n/a	n/a	n/a
1944.5906	1	10	579.8	579.8	1	0	1	0	0	0	4.6566e-10	0	0.7	0.7	27
1945.174	1	20	n/a	n/a	1	n/a	n/a	n/a	n/a	n/a	0.1	0	n/a	n/a	n/a
1946.847	1	80	n/a	n/a	1	n/a	n/a	n/a	n/a	n/a	0	0	n/a	n/a	n/a
1946.947	1	80	n/a	n/a	1	n/a	n/a	n/a	n/a	n/a	0	0	n/a	n/a	n/a
1947.1572	1	31	n/a	n/a	1	n/a	n/a	n/a	n/a	n/a	2.3283e-10	0	n/a	n/a	n/a
1949.1738	1	10	652.6	652.6	1	0	1	0	0	0	0	0	0.6	0.6	28
1949.8404	1	20	n/a	n/a	1	n/a	n/a	n/a	n/a	n/a	-2.3283e-10	0	n/a	n/a	n/a
1951.4034	1	80	n/a	n/a	1	n/a	n/a	n/a	n/a	n/a	0	0	n/a	n/a	n/a
1951.5034	1	80	n/a	n/a	1	n/a	n/a	n/a	n/a	n/a	0	0	n/a	n/a	n/a
1951.7068	1	30	n/a	n/a	1	n/a	n/a	n/a	n/a	n/a	-0.2	0	n/a	n/a	n/a
1953.7234	1	10	982.8	982.8	1	0	1	0	0	0	0.1	0	0.1	0.1	29
1954.7234	1	20	n/a	n/a	1	n/a	n/a	n/a	n/a	n/a	0	0	n/a	n/a	n/a
1956.2024	1	80	n/a	n/a	1	n/a	n/a	n/a	n/a	n/a	0	0	n/a	n/a	n/a
1956.3024	1	80	n/a	n/a	1	n/a	n/a	n/a	n/a	n/a	0	0	n/a	n/a	n/a
1956.5066	1	31	n/a	n/a	1	n/a	n/a	n/a	n/a	n/a	4.6566e-10	0	n/a	n/a	n/a
1958.5232	1	10	1142.9	1142.9	1	0	1	0	0	0	-2.3283e-10	0	0.4	0.4	30
1959.673	1	20	n/a	n/a	1	n/a	n/a	n/a	n/a	n/a	-0.1	0	n/a	n/a	n/a
1961.257	1	80	n/a	n/a	1	n/a	n/a	n/a	n/a	n/a	0	0	n/a	n/a	n/a
1961.357	1	80	n/a	n/a	1	n/a	n/a	n/a	n/a	n/a	0	0	n/a	n/a	n/a
1961.573	1	31	n/a	n/a	1	n/a	n/a	n/a	n/a	n/a	0.1	0	n/a	n/a	n/a
1972.6056	1	10	2260.1	2260.1	1	0	1	0	0.6	0.73321	-0.1	0	0.1	0.03125	31
1974.8722	1	20	n/a	n/a	1	n/a	n/a	n/a	n/a	n/a	-2.3283e-10	0	n/a	n/a	n/a
1976.6952	1	80	n/a	n/a	1	n/a	n/a	n/a	n/a	n/a	0	0	n/a	n/a	n/a
1976.7952	1	80	n/a	n/a	1	n/a	n/a	n/a	n/a	n/a	0	0	n/a	n/a	n/a
1977.0054	1	31	n/a	n/a	1	n/a	n/a	n/a	n/a	n/a	-2.3283e-10	0	n/a	n/a	n/a
1979.022	1	40	n/a	n/a	1	n/a	n/a	n/a	n/a	n/a	0.1	0	n/a	n/a	n/a
1981.0384	1	10	1235.1	1235.1	1	0	1	0	0.5	0.82125	-0.2	0	0.5	0.82125	32
1982.2884	1	20	n/a	n/a	1	n/a	n/a	n/a	n/a	n/a	0.1	0	n/a	n/a	n/a
1984.0374	1	80	n/a	n/a	1	n/a	n/a	n/a	n/a	n/a	0	0	n/a	n/a	n/a
1984.1374	1	80	n/a	n/a	1	n/a	n/a	n/a	n/a	n/a	0	0	n/a	n/a	n/a
1984.355	1	30	n/a	n/a	1	n/a	n/a	n/a	n/a	n/a	4.6566e-10	0	n/a	n/a	n/a
1986.3714	1	40	n/a	n/a	1	n/a	n/a	n/a	n/a	n/a	-0.1	0	n/a	n/a	n/a
1988.388	1	10	1101.4	1101.4	1	0	1	0	0.4	0.047845	0	0	0.6	0.36523	33
1989.5046	1	20	n/a	n/a	1	n/a	n/a	n/a	n/a	n/a	0	0	n/a	n/a	n/a
1990.6066	1	80	n/a	n/a	1	n/a	n/a	n/a	n/a	n/a	0	0	n/a	n/a	n/a
1990.7066	1	80	n/a	n/a	1	n/a	n/a	n/a	n/a	n/a	0	0	n/a	n/a	n/a
1990.9212	1	31	n/a	n/a	1	n/a	n/a	n/a	n/a	n/a	-2.3283e-10	0	n/a	n/a	n/a
1992.9378	1	40	n/a	n/a	1	n/a	n/a	n/a	n/a	n/a	0.1	0	n/a	n/a	n/a
1994.9544	1	10	838.9	838.9	1	0	1	0	0.7	0.57805	-2.3283e-10	0	0.1	0.041667	34
1995.8042	1	20	n/a	n/a	1	n/a	n/a	n/a	n/a	n/a	-0.1	0	n/a	n/a	n/a
1997.2092	1	80	n/a	n/a	1	n/a	n/a	n/a	n/a	n/a	-0.1	0	n/a	n/a	n/a
1997.3092	1	80	n/a	n/a	1	n/a	n/a	n/a	n/a	n/a	0	0	n/a	n/a	n/a
1997.5208	1	30	n/a	n/a	1	n/a	n/a	n/a	n/a	n/a	0.1	0	n/a	n/a	n/a
1999.5374	1	40	n/a	n/a	1	n/a	n/a	n/a	n/a	n/a	2.3283e-10	0	n/a	n/a	n/a
2001.554	1	10	1023.2	1023.2	1	0	1	0	0.6	0.075796	0.1	0	0.1	0.03125	35
2002.5872	1	20	n/a	n/a	1	n/a	n/a	n/a	n/a	n/a	-0.1	0	n/a	n/a	n/a
2003.7202	1	80	n/a	n/a	1	n/a	n/a	n/a	n/a	n/a	0	0	n/a	n/a	n/a
2003.8202	1	80	n/a	n/a	1	n/a	n/a	n/a	n/a	n/a	0	0	n/a	n/a	n/a
2004.0372	1	31	n/a	n/a	1	n/a	n/a	n/a	n/a	n/a	0.1	0	n/a	n/a	n/a
2006.0536	1	40	n/a	n/a	1	n/a	n/a	n/a	n/a	n/a	-0.2	0	n/a	n/a	n/a
2008.0702	1	10	2202.8	2202.8	1	0	1	0	0.8	0.88063	0.1	0	0.2	0.52251	36
2010.2868	1	20	n/a	n/a	1	n/a	n/a	n/a	n/a	n/a	0	0	n/a	n/a	n/a
2011.6188	1	80	n/a	n/a	1	n/a	n/a	n/a	n/a	n/a	0	0	n/a	n/a	n/a
2011.7188	1	80	n/a	n/a	1	n/a	n/a	n/a	n/a	n/a	0	0	n/a	n/a	n/a
2011.9366	1	31	n/a	n/a	1	n/a	n/a	n/a	n/a	n/a	-0.1	0	n/a	n/a	n/a
2013.9532	1	40	n/a	n/a	1	n/a	n/a	n/a	n/a	n/a	0.1	0	n/a	n/a	n/a
2015.9698	1	10	831	831	1	0	1	0	0.5	0.094269	0	0	0.8	0.69427	37
2016.803	1	20	n/a	n/a	1	n/a	n/a	n/a	n/a	n/a	-0.1	0	n/a	n/a	n/a
2018.791	1	80	n/a	n/a	1	n/a	n/a	n/a	n/a	n/a	0	0	n/a	n/a	n/a
2018.891	1	80	n/a	n/a	1	n/a	n/a	n/a	n/a	n/a	0	0	n/a	n/a	n/a
2019.1028	1	30	n/a	n/a	1	n/a	n/a	n/a	n/a	n/a	-0.1	0	n/a	n/a	n/a
2021.1194	1	40	n/a	n/a	1	n/a	n/a	n/a	n/a	n/a	0.1	0	n/a	n/a	n/a
2023.136	1	10	816.6	816.6	1	0	1	0	0.8	0.22634	0	0	0.8	0.90536	38
2023.9692	1	20	n/a	n/a	1	n/a	n/a	n/a	n/a	n/a	-0.1	0	n/a	n/a	n/a
2025.4262	1	80	n/a	n/a	1	n/a	n/a	n/a	n/a	n/a	0	0	n/a	n/a	n/a
2025.5262	1	80	n/a	n/a	1	n/a	n/a	n/a	n/a	n/a	0	0	n/a	n/a	n/a
2025.7358	1	30	n/a	n/a	1	n/a	n/a	n/a	n/a	n/a	0.1	0	n/a	n/a	n/a
2027.7524	1	40	n/a	n/a	1	n/a	n/a	n/a	n/a	n/a	-2.3283e-10	0	n/a	n/a	n/a
2029.769	1	10	839.6	839.6	1	0	1	0	0.7	0.041028	0.1	0	0.8	0.42907	39
2030.6188	1	20	n/a	n/a	1	n/a	n/a	n/a	n/a	n/a	-0.2	0	n/a	n/a	n/a
2032.5218	1	80	n/a	n/a	1	n/a	n/a	n/a	n/a	n/a	0	0	n/a	n/a	n/a
2032.6218	1	80	n/a	n/a	1	n/a	n/a	n/a	n/a	n/a	0	0	n/a	n/a	n/a
2032.8354	1	30	n/a	n/a	1	n/a	n/a	n/a	n/a	n/a	0.1	0	n/a	n/a	n/a
2034.852	1	40	n/a	n/a	1	n/a	n/a	n/a	n/a	n/a	0	0	n/a	n/a	n/a
2036.8686	1	10	1883.8	1883.8	1	0	1	0	0.8	0.2052	0.1	0	0.1	0.0625	40
2038.7684	1	20	n/a	n/a	1	n/a	n/a	n/a	n/a	n/a	-0.1	0	n/a	n/a	n/a
2040.3724	1	80	n/a	n/a	1	n/a	n/a	n/a	n/a	n/a	-0.1	0	n/a	n/a	n/a
2040.4724	1	80	n/a	n/a	1	n/a	n/a	n/a	n/a	n/a	0	0	n/a	n/a	n/a
2040.685	1	31	n/a	n/a	1	n/a	n/a	n/a	n/a	n/a	0.1	0	n/a	n/a	n/a
2042.7014	1	40	n/a	n/a	1	n/a	n/a	n/a	n/a	n/a	-0.1	0	n/a	n/a	n/a
