onset	duration	value	response	rt	good	TMSips	TMSppc	TMSvertex	a	bias	p	pv	ronda
27.8096	1	10	1995.2	1995.2	1	0	1	0	0	0	0.8	0.8	1
29.8096	1	20	n/a	n/a	1	n/a	n/a	n/a	n/a	n/a	n/a	n/a	n/a
31.8026	1	80	n/a	n/a	1	n/a	n/a	n/a	n/a	n/a	n/a	n/a	n/a
31.9026	1	80	n/a	n/a	1	n/a	n/a	n/a	n/a	n/a	n/a	n/a	n/a
32.1094	1	31	n/a	n/a	1	n/a	n/a	n/a	n/a	n/a	n/a	n/a	n/a
34.126	1	10	2622.8	2622.8	1	0	1	0	0	0	0.4	0.4	2
36.7592	1	20	n/a	n/a	1	n/a	n/a	n/a	n/a	n/a	n/a	n/a	n/a
38.1352	1	80	n/a	n/a	1	n/a	n/a	n/a	n/a	n/a	n/a	n/a	n/a
38.2352	1	80	n/a	n/a	1	n/a	n/a	n/a	n/a	n/a	n/a	n/a	n/a
38.4424	1	31	n/a	n/a	1	n/a	n/a	n/a	n/a	n/a	n/a	n/a	n/a
40.4588	1	10	1345.7	1345.7	1	0	1	0	0	0	0.1	0.1	3
41.8088	1	20	n/a	n/a	1	n/a	n/a	n/a	n/a	n/a	n/a	n/a	n/a
43.0848	1	80	n/a	n/a	1	n/a	n/a	n/a	n/a	n/a	n/a	n/a	n/a
43.1848	1	80	n/a	n/a	1	n/a	n/a	n/a	n/a	n/a	n/a	n/a	n/a
43.392	1	31	n/a	n/a	1	n/a	n/a	n/a	n/a	n/a	n/a	n/a	n/a
45.4086	1	10	1787.9	1787.9	1	0	1	0	0	0	0.4	0.4	4
47.2084	1	20	n/a	n/a	1	n/a	n/a	n/a	n/a	n/a	n/a	n/a	n/a
48.8926	1	80	n/a	n/a	1	n/a	n/a	n/a	n/a	n/a	n/a	n/a	n/a
48.9926	1	80	n/a	n/a	1	n/a	n/a	n/a	n/a	n/a	n/a	n/a	n/a
49.2084	1	31	n/a	n/a	1	n/a	n/a	n/a	n/a	n/a	n/a	n/a	n/a
51.225	1	10	803.5	803.5	1	0	1	0	0	0	0.1	0.1	5
52.0416	1	20	n/a	n/a	1	n/a	n/a	n/a	n/a	n/a	n/a	n/a	n/a
53.9646	1	80	n/a	n/a	1	n/a	n/a	n/a	n/a	n/a	n/a	n/a	n/a
54.0646	1	80	n/a	n/a	1	n/a	n/a	n/a	n/a	n/a	n/a	n/a	n/a
54.2748	1	31	n/a	n/a	1	n/a	n/a	n/a	n/a	n/a	n/a	n/a	n/a
56.2912	1	10	936.9	936.9	1	0	1	0	0	0	0.1	0.1	6
57.2412	1	20	n/a	n/a	1	n/a	n/a	n/a	n/a	n/a	n/a	n/a	n/a
58.6812	1	80	n/a	n/a	1	n/a	n/a	n/a	n/a	n/a	n/a	n/a	n/a
58.7812	1	80	n/a	n/a	1	n/a	n/a	n/a	n/a	n/a	n/a	n/a	n/a
58.9912	1	30	n/a	n/a	1	n/a	n/a	n/a	n/a	n/a	n/a	n/a	n/a
61.0076	1	10	1228.5	1228.5	1	0	1	0	0	0	0.5	0.5	7
62.241	1	20	n/a	n/a	1	n/a	n/a	n/a	n/a	n/a	n/a	n/a	n/a
63.273	1	80	n/a	n/a	1	n/a	n/a	n/a	n/a	n/a	n/a	n/a	n/a
63.373	1	80	n/a	n/a	1	n/a	n/a	n/a	n/a	n/a	n/a	n/a	n/a
63.5908	1	30	n/a	n/a	1	n/a	n/a	n/a	n/a	n/a	n/a	n/a	n/a
65.6074	1	10	1492.7	1492.7	1	0	1	0	0	0	0.3	0.3	8
67.1072	1	20	n/a	n/a	1	n/a	n/a	n/a	n/a	n/a	n/a	n/a	n/a
68.4042	1	80	n/a	n/a	1	n/a	n/a	n/a	n/a	n/a	n/a	n/a	n/a
68.5042	1	80	n/a	n/a	1	n/a	n/a	n/a	n/a	n/a	n/a	n/a	n/a
68.7072	1	31	n/a	n/a	1	n/a	n/a	n/a	n/a	n/a	n/a	n/a	n/a
70.7238	1	10	1624.2	1624.2	1	0	1	0	0	0	0.5	0.5	9
72.357	1	20	n/a	n/a	1	n/a	n/a	n/a	n/a	n/a	n/a	n/a	n/a
73.584	1	80	n/a	n/a	1	n/a	n/a	n/a	n/a	n/a	n/a	n/a	n/a
73.684	1	80	n/a	n/a	1	n/a	n/a	n/a	n/a	n/a	n/a	n/a	n/a
73.8902	1	30	n/a	n/a	1	n/a	n/a	n/a	n/a	n/a	n/a	n/a	n/a
75.9068	1	10	921.1	921.1	1	0	1	0	0	0	0.1	0.1	10
76.84	1	20	n/a	n/a	1	n/a	n/a	n/a	n/a	n/a	n/a	n/a	n/a
78.339	1	80	n/a	n/a	1	n/a	n/a	n/a	n/a	n/a	n/a	n/a	n/a
78.439	1	80	n/a	n/a	1	n/a	n/a	n/a	n/a	n/a	n/a	n/a	n/a
78.6566	1	31	n/a	n/a	1	n/a	n/a	n/a	n/a	n/a	n/a	n/a	n/a
89.6892	1	10	7490.1	7490.1	1	0	1	0	0.7	0.31742	0.5	0.073991	11
97.1888	1	20	n/a	n/a	1	n/a	n/a	n/a	n/a	n/a	n/a	n/a	n/a
98.7168	1	80	n/a	n/a	1	n/a	n/a	n/a	n/a	n/a	n/a	n/a	n/a
98.8168	1	80	n/a	n/a	1	n/a	n/a	n/a	n/a	n/a	n/a	n/a	n/a
99.022	1	30	n/a	n/a	1	n/a	n/a	n/a	n/a	n/a	n/a	n/a	n/a
101.0386	1	40	n/a	n/a	1	n/a	n/a	n/a	n/a	n/a	n/a	n/a	n/a
103.0552	1	10	2236	2236	1	0	1	0	0.6	0.18492	0.6	0.27738	12
105.305	1	20	n/a	n/a	1	n/a	n/a	n/a	n/a	n/a	n/a	n/a	n/a
107.209	1	80	n/a	n/a	1	n/a	n/a	n/a	n/a	n/a	n/a	n/a	n/a
107.309	1	80	n/a	n/a	1	n/a	n/a	n/a	n/a	n/a	n/a	n/a	n/a
107.5216	1	30	n/a	n/a	1	n/a	n/a	n/a	n/a	n/a	n/a	n/a	n/a
109.538	1	40	n/a	n/a	1	n/a	n/a	n/a	n/a	n/a	n/a	n/a	n/a
111.5546	1	10	2152.4	2152.4	1	0	1	0	0.7	0.47476	0.5	0.4411	13
113.7212	1	20	n/a	n/a	1	n/a	n/a	n/a	n/a	n/a	n/a	n/a	n/a
114.7562	1	80	n/a	n/a	1	n/a	n/a	n/a	n/a	n/a	n/a	n/a	n/a
114.8562	1	80	n/a	n/a	1	n/a	n/a	n/a	n/a	n/a	n/a	n/a	n/a
115.071	1	30	n/a	n/a	1	n/a	n/a	n/a	n/a	n/a	n/a	n/a	n/a
117.0876	1	40	n/a	n/a	1	n/a	n/a	n/a	n/a	n/a	n/a	n/a	n/a
119.1042	1	10	1818.6	1818.6	1	0	1	0	0.4	0.42608	0.6	0.61739	14
120.9374	1	20	n/a	n/a	1	n/a	n/a	n/a	n/a	n/a	n/a	n/a	n/a
122.7484	1	80	n/a	n/a	1	n/a	n/a	n/a	n/a	n/a	n/a	n/a	n/a
122.8484	1	80	n/a	n/a	1	n/a	n/a	n/a	n/a	n/a	n/a	n/a	n/a
123.054	1	31	n/a	n/a	1	n/a	n/a	n/a	n/a	n/a	n/a	n/a	n/a
125.0704	1	40	n/a	n/a	1	n/a	n/a	n/a	n/a	n/a	n/a	n/a	n/a
127.087	1	10	2923.6	2923.6	1	0	1	0	0.4	0.70213	0.3	0.30142	15
130.0202	1	20	n/a	n/a	1	n/a	n/a	n/a	n/a	n/a	n/a	n/a	n/a
131.2262	1	80	n/a	n/a	1	n/a	n/a	n/a	n/a	n/a	n/a	n/a	n/a
131.3262	1	80	n/a	n/a	1	n/a	n/a	n/a	n/a	n/a	n/a	n/a	n/a
131.5368	1	30	n/a	n/a	1	n/a	n/a	n/a	n/a	n/a	n/a	n/a	n/a
133.5532	1	40	n/a	n/a	1	n/a	n/a	n/a	n/a	n/a	n/a	n/a	n/a
135.5698	1	10	1592.6	1592.6	1	0	1	0	0.8	0.62431	0.4	0.49723	16
137.1698	1	20	n/a	n/a	1	n/a	n/a	n/a	n/a	n/a	n/a	n/a	n/a
138.9878	1	80	n/a	n/a	1	n/a	n/a	n/a	n/a	n/a	n/a	n/a	n/a
139.0878	1	80	n/a	n/a	1	n/a	n/a	n/a	n/a	n/a	n/a	n/a	n/a
139.303	1	30	n/a	n/a	1	n/a	n/a	n/a	n/a	n/a	n/a	n/a	n/a
141.3194	1	40	n/a	n/a	1	n/a	n/a	n/a	n/a	n/a	n/a	n/a	n/a
143.336	1	10	1842.2	1842.2	1	0	1	0	0.7	0.6911	0.4	0.61256	17
145.186	1	20	n/a	n/a	1	n/a	n/a	n/a	n/a	n/a	n/a	n/a	n/a
146.774	1	80	n/a	n/a	1	n/a	n/a	n/a	n/a	n/a	n/a	n/a	n/a
146.874	1	80	n/a	n/a	1	n/a	n/a	n/a	n/a	n/a	n/a	n/a	n/a
147.0858	1	30	n/a	n/a	1	n/a	n/a	n/a	n/a	n/a	n/a	n/a	n/a
149.1024	1	40	n/a	n/a	1	n/a	n/a	n/a	n/a	n/a	n/a	n/a	n/a
151.119	1	10	2427.1	2427.1	1	0	1	0	0.4	0.26729	0.4	0.17819	18
153.552	1	20	n/a	n/a	1	n/a	n/a	n/a	n/a	n/a	n/a	n/a	n/a
155.2342	1	80	n/a	n/a	1	n/a	n/a	n/a	n/a	n/a	n/a	n/a	n/a
155.334	1	80	n/a	n/a	1	n/a	n/a	n/a	n/a	n/a	n/a	n/a	n/a
155.552	1	31	n/a	n/a	1	n/a	n/a	n/a	n/a	n/a	n/a	n/a	n/a
157.5686	1	40	n/a	n/a	1	n/a	n/a	n/a	n/a	n/a	n/a	n/a	n/a
159.585	1	10	2040.8	2040.8	1	0	1	0	0.8	0.45856	0.5	0.33425	19
161.635	1	20	n/a	n/a	1	n/a	n/a	n/a	n/a	n/a	n/a	n/a	n/a
163.426	1	80	n/a	n/a	1	n/a	n/a	n/a	n/a	n/a	n/a	n/a	n/a
163.526	1	80	n/a	n/a	1	n/a	n/a	n/a	n/a	n/a	n/a	n/a	n/a
163.7348	1	30	n/a	n/a	1	n/a	n/a	n/a	n/a	n/a	n/a	n/a	n/a
165.7514	1	40	n/a	n/a	1	n/a	n/a	n/a	n/a	n/a	n/a	n/a	n/a
167.768	1	10	1553.7	1553.7	1	0	1	0	0.7	0.64585	0.3	0.17366	20
169.3344	1	20	n/a	n/a	1	n/a	n/a	n/a	n/a	n/a	n/a	n/a	n/a
170.7524	1	80	n/a	n/a	1	n/a	n/a	n/a	n/a	n/a	n/a	n/a	n/a
170.8524	1	80	n/a	n/a	1	n/a	n/a	n/a	n/a	n/a	n/a	n/a	n/a
171.0678	1	31	n/a	n/a	1	n/a	n/a	n/a	n/a	n/a	n/a	n/a	n/a
173.0842	1	40	n/a	n/a	1	n/a	n/a	n/a	n/a	n/a	n/a	n/a	n/a
184.117	1	10	1956.3	1956.3	1	0	1	0	0	0	0.1	0.1	21
186.0834	1	20	n/a	n/a	1	n/a	n/a	n/a	n/a	n/a	n/a	n/a	n/a
187.8304	1	80	n/a	n/a	1	n/a	n/a	n/a	n/a	n/a	n/a	n/a	n/a
187.9304	1	80	n/a	n/a	1	n/a	n/a	n/a	n/a	n/a	n/a	n/a	n/a
188.1334	1	31	n/a	n/a	1	n/a	n/a	n/a	n/a	n/a	n/a	n/a	n/a
190.1498	1	10	1219.3	1219.3	1	0	1	0	0	0	0.1	0.1	22
191.3832	1	20	n/a	n/a	1	n/a	n/a	n/a	n/a	n/a	n/a	n/a	n/a
193.2852	1	80	n/a	n/a	1	n/a	n/a	n/a	n/a	n/a	n/a	n/a	n/a
193.3852	1	80	n/a	n/a	1	n/a	n/a	n/a	n/a	n/a	n/a	n/a	n/a
193.5996	1	31	n/a	n/a	1	n/a	n/a	n/a	n/a	n/a	n/a	n/a	n/a
195.6162	1	10	1864.7	1864.7	1	0	1	0	0	0	0.4	0.4	23
197.4994	1	20	n/a	n/a	1	n/a	n/a	n/a	n/a	n/a	n/a	n/a	n/a
199.0634	1	80	n/a	n/a	1	n/a	n/a	n/a	n/a	n/a	n/a	n/a	n/a
199.1634	1	80	n/a	n/a	1	n/a	n/a	n/a	n/a	n/a	n/a	n/a	n/a
199.366	1	31	n/a	n/a	1	n/a	n/a	n/a	n/a	n/a	n/a	n/a	n/a
201.3826	1	10	2546.3	2546.3	1	0	1	0	0	0	0.6	0.6	24
203.9324	1	20	n/a	n/a	1	n/a	n/a	n/a	n/a	n/a	n/a	n/a	n/a
205.3284	1	80	n/a	n/a	1	n/a	n/a	n/a	n/a	n/a	n/a	n/a	n/a
205.4284	1	80	n/a	n/a	1	n/a	n/a	n/a	n/a	n/a	n/a	n/a	n/a
205.6322	1	30	n/a	n/a	1	n/a	n/a	n/a	n/a	n/a	n/a	n/a	n/a
207.6488	1	10	743.9	743.9	1	0	1	0	0	0	0.2	0.2	25
208.3988	1	20	n/a	n/a	1	n/a	n/a	n/a	n/a	n/a	n/a	n/a	n/a
209.5498	1	80	n/a	n/a	1	n/a	n/a	n/a	n/a	n/a	n/a	n/a	n/a
209.6498	1	80	n/a	n/a	1	n/a	n/a	n/a	n/a	n/a	n/a	n/a	n/a
209.8654	1	31	n/a	n/a	1	n/a	n/a	n/a	n/a	n/a	n/a	n/a	n/a
211.882	1	10	1934.7	1934.7	1	0	1	0	0	0	0.3	0.3	26
213.8318	1	20	n/a	n/a	1	n/a	n/a	n/a	n/a	n/a	n/a	n/a	n/a
215.4088	1	80	n/a	n/a	1	n/a	n/a	n/a	n/a	n/a	n/a	n/a	n/a
215.5088	1	80	n/a	n/a	1	n/a	n/a	n/a	n/a	n/a	n/a	n/a	n/a
215.715	1	31	n/a	n/a	1	n/a	n/a	n/a	n/a	n/a	n/a	n/a	n/a
217.7316	1	10	692.9	692.9	1	0	1	0	0	0	0.1	0.1	27
218.4316	1	20	n/a	n/a	1	n/a	n/a	n/a	n/a	n/a	n/a	n/a	n/a
219.7586	1	80	n/a	n/a	1	n/a	n/a	n/a	n/a	n/a	n/a	n/a	n/a
219.8586	1	80	n/a	n/a	1	n/a	n/a	n/a	n/a	n/a	n/a	n/a	n/a
220.0648	1	30	n/a	n/a	1	n/a	n/a	n/a	n/a	n/a	n/a	n/a	n/a
222.0814	1	10	983.1	983.1	1	0	1	0	0	0	0.4	0.4	28
223.0812	1	20	n/a	n/a	1	n/a	n/a	n/a	n/a	n/a	n/a	n/a	n/a
224.5922	1	80	n/a	n/a	1	n/a	n/a	n/a	n/a	n/a	n/a	n/a	n/a
224.6922	1	80	n/a	n/a	1	n/a	n/a	n/a	n/a	n/a	n/a	n/a	n/a
224.8978	1	31	n/a	n/a	1	n/a	n/a	n/a	n/a	n/a	n/a	n/a	n/a
226.9144	1	10	1077.9	1077.9	1	0	1	0	0	0	0.9	0.9	29
227.9976	1	20	n/a	n/a	1	n/a	n/a	n/a	n/a	n/a	n/a	n/a	n/a
229.6736	1	80	n/a	n/a	1	n/a	n/a	n/a	n/a	n/a	n/a	n/a	n/a
229.7736	1	80	n/a	n/a	1	n/a	n/a	n/a	n/a	n/a	n/a	n/a	n/a
229.9808	1	31	n/a	n/a	1	n/a	n/a	n/a	n/a	n/a	n/a	n/a	n/a
231.9974	1	10	2202.7	2202.7	1	0	1	0	0	0	0.1	0.1	30
234.214	1	20	n/a	n/a	1	n/a	n/a	n/a	n/a	n/a	n/a	n/a	n/a
235.758	1	80	n/a	n/a	1	n/a	n/a	n/a	n/a	n/a	n/a	n/a	n/a
235.858	1	80	n/a	n/a	1	n/a	n/a	n/a	n/a	n/a	n/a	n/a	n/a
236.0638	1	30	n/a	n/a	1	n/a	n/a	n/a	n/a	n/a	n/a	n/a	n/a
247.0964	1	10	1535.3	1535.3	1	0	1	0	0.5	0.10488	0.9	0.90488	31
248.6464	1	20	n/a	n/a	1	n/a	n/a	n/a	n/a	n/a	n/a	n/a	n/a
249.7454	1	80	n/a	n/a	1	n/a	n/a	n/a	n/a	n/a	n/a	n/a	n/a
249.8454	1	80	n/a	n/a	1	n/a	n/a	n/a	n/a	n/a	n/a	n/a	n/a
250.063	1	31	n/a	n/a	1	n/a	n/a	n/a	n/a	n/a	n/a	n/a	n/a
252.0796	1	40	n/a	n/a	1	n/a	n/a	n/a	n/a	n/a	n/a	n/a	n/a
254.096	1	10	791.6	791.6	1	0	1	0	0.4	0.01218	0.5	0.17479	32
254.896	1	20	n/a	n/a	1	n/a	n/a	n/a	n/a	n/a	n/a	n/a	n/a
256.493	1	80	n/a	n/a	1	n/a	n/a	n/a	n/a	n/a	n/a	n/a	n/a
256.593	1	80	n/a	n/a	1	n/a	n/a	n/a	n/a	n/a	n/a	n/a	n/a
256.7958	1	31	n/a	n/a	1	n/a	n/a	n/a	n/a	n/a	n/a	n/a	n/a
258.8124	1	40	n/a	n/a	1	n/a	n/a	n/a	n/a	n/a	n/a	n/a	n/a
260.829	1	10	1258.6	1258.6	1	0	1	0	0.5	0.050004	0.9	0.85	33
262.0956	1	20	n/a	n/a	1	n/a	n/a	n/a	n/a	n/a	n/a	n/a	n/a
263.1376	1	80	n/a	n/a	1	n/a	n/a	n/a	n/a	n/a	n/a	n/a	n/a
263.2376	1	80	n/a	n/a	1	n/a	n/a	n/a	n/a	n/a	n/a	n/a	n/a
263.4454	1	31	n/a	n/a	1	n/a	n/a	n/a	n/a	n/a	n/a	n/a	n/a
265.462	1	40	n/a	n/a	1	n/a	n/a	n/a	n/a	n/a	n/a	n/a	n/a
267.4786	1	10	1088.8	1088.8	1	0	1	0	0.5	0.56363	0.8	0.975	34
268.5786	1	20	n/a	n/a	1	n/a	n/a	n/a	n/a	n/a	n/a	n/a	n/a
269.6486	1	80	n/a	n/a	1	n/a	n/a	n/a	n/a	n/a	n/a	n/a	n/a
269.7486	1	80	n/a	n/a	1	n/a	n/a	n/a	n/a	n/a	n/a	n/a	n/a
269.9618	1	31	n/a	n/a	1	n/a	n/a	n/a	n/a	n/a	n/a	n/a	n/a
271.9784	1	40	n/a	n/a	1	n/a	n/a	n/a	n/a	n/a	n/a	n/a	n/a
273.9948	1	10	1228.3	1228.3	1	0	1	0	0.7	0.96812	0.1	0.25894	35
275.2282	1	20	n/a	n/a	1	n/a	n/a	n/a	n/a	n/a	n/a	n/a	n/a
276.4692	1	80	n/a	n/a	1	n/a	n/a	n/a	n/a	n/a	n/a	n/a	n/a
276.5692	1	80	n/a	n/a	1	n/a	n/a	n/a	n/a	n/a	n/a	n/a	n/a
276.778	1	31	n/a	n/a	1	n/a	n/a	n/a	n/a	n/a	n/a	n/a	n/a
278.7946	1	40	n/a	n/a	1	n/a	n/a	n/a	n/a	n/a	n/a	n/a	n/a
280.8112	1	10	891.9	891.9	1	0	1	0	0.8	0.030046	0.8	0.12018	36
281.711	1	20	n/a	n/a	1	n/a	n/a	n/a	n/a	n/a	n/a	n/a	n/a
283.104	1	80	n/a	n/a	1	n/a	n/a	n/a	n/a	n/a	n/a	n/a	n/a
283.204	1	80	n/a	n/a	1	n/a	n/a	n/a	n/a	n/a	n/a	n/a	n/a
283.411	1	30	n/a	n/a	1	n/a	n/a	n/a	n/a	n/a	n/a	n/a	n/a
285.4274	1	40	n/a	n/a	1	n/a	n/a	n/a	n/a	n/a	n/a	n/a	n/a
287.444	1	10	1138.8	1138.8	1	0	1	0	0.8	0.24533	0.4	0.0625	37
288.594	1	20	n/a	n/a	1	n/a	n/a	n/a	n/a	n/a	n/a	n/a	n/a
290.263	1	80	n/a	n/a	1	n/a	n/a	n/a	n/a	n/a	n/a	n/a	n/a
290.363	1	80	n/a	n/a	1	n/a	n/a	n/a	n/a	n/a	n/a	n/a	n/a
290.5772	1	31	n/a	n/a	1	n/a	n/a	n/a	n/a	n/a	n/a	n/a	n/a
292.5938	1	40	n/a	n/a	1	n/a	n/a	n/a	n/a	n/a	n/a	n/a	n/a
294.6102	1	10	1556.4	1556.4	1	0	1	0	0.6	0.21132	0.7	0.56698	38
296.1768	1	20	n/a	n/a	1	n/a	n/a	n/a	n/a	n/a	n/a	n/a	n/a
298.0648	1	80	n/a	n/a	1	n/a	n/a	n/a	n/a	n/a	n/a	n/a	n/a
298.1648	1	80	n/a	n/a	1	n/a	n/a	n/a	n/a	n/a	n/a	n/a	n/a
298.3768	1	31	n/a	n/a	1	n/a	n/a	n/a	n/a	n/a	n/a	n/a	n/a
300.3932	1	40	n/a	n/a	1	n/a	n/a	n/a	n/a	n/a	n/a	n/a	n/a
302.4098	1	10	844.8	844.8	1	0	1	0	0.4	0.88592	0.1	0.090612	39
303.2598	1	20	n/a	n/a	1	n/a	n/a	n/a	n/a	n/a	n/a	n/a	n/a
304.2798	1	80	n/a	n/a	1	n/a	n/a	n/a	n/a	n/a	n/a	n/a	n/a
304.3798	1	80	n/a	n/a	1	n/a	n/a	n/a	n/a	n/a	n/a	n/a	n/a
304.593	1	31	n/a	n/a	1	n/a	n/a	n/a	n/a	n/a	n/a	n/a	n/a
306.6096	1	40	n/a	n/a	1	n/a	n/a	n/a	n/a	n/a	n/a	n/a	n/a
308.626	1	10	1876.3	1876.3	1	0	1	0	0.8	0.79482	0.2	0.17928	40
310.5094	1	20	n/a	n/a	1	n/a	n/a	n/a	n/a	n/a	n/a	n/a	n/a
312.3764	1	80	n/a	n/a	1	n/a	n/a	n/a	n/a	n/a	n/a	n/a	n/a
312.4764	1	80	n/a	n/a	1	n/a	n/a	n/a	n/a	n/a	n/a	n/a	n/a
312.6926	1	31	n/a	n/a	1	n/a	n/a	n/a	n/a	n/a	n/a	n/a	n/a
314.709	1	40	n/a	n/a	1	n/a	n/a	n/a	n/a	n/a	n/a	n/a	n/a
352.8902	1	10	843.2	843.2	1	0	0	1	0	0	0.1	0.1	1
353.74	1	20	n/a	n/a	1	n/a	n/a	n/a	n/a	n/a	n/a	n/a	n/a
355.413	1	80	n/a	n/a	1	n/a	n/a	n/a	n/a	n/a	n/a	n/a	n/a
355.513	1	80	n/a	n/a	1	n/a	n/a	n/a	n/a	n/a	n/a	n/a	n/a
355.7232	1	31	n/a	n/a	1	n/a	n/a	n/a	n/a	n/a	n/a	n/a	n/a
357.7398	1	10	825.4	825.4	1	0	0	1	0	0	0.1	0.1	2
358.573	1	20	n/a	n/a	1	n/a	n/a	n/a	n/a	n/a	n/a	n/a	n/a
359.8972	1	80	n/a	n/a	1	n/a	n/a	n/a	n/a	n/a	n/a	n/a	n/a
359.9972	1	80	n/a	n/a	1	n/a	n/a	n/a	n/a	n/a	n/a	n/a	n/a
360.2064	1	31	n/a	n/a	1	n/a	n/a	n/a	n/a	n/a	n/a	n/a	n/a
362.2228	1	10	710.3	710.3	1	0	0	1	0	0	0.7	0.7	3
362.9396	1	20	n/a	n/a	1	n/a	n/a	n/a	n/a	n/a	n/a	n/a	n/a
364.2996	1	80	n/a	n/a	1	n/a	n/a	n/a	n/a	n/a	n/a	n/a	n/a
364.3996	1	80	n/a	n/a	1	n/a	n/a	n/a	n/a	n/a	n/a	n/a	n/a
364.606	1	31	n/a	n/a	1	n/a	n/a	n/a	n/a	n/a	n/a	n/a	n/a
366.6226	1	10	2054.4	2054.4	1	0	0	1	0	0	0.4	0.4	4
368.6892	1	20	n/a	n/a	1	n/a	n/a	n/a	n/a	n/a	n/a	n/a	n/a
369.8652	1	80	n/a	n/a	1	n/a	n/a	n/a	n/a	n/a	n/a	n/a	n/a
369.9652	1	80	n/a	n/a	1	n/a	n/a	n/a	n/a	n/a	n/a	n/a	n/a
370.1724	1	31	n/a	n/a	1	n/a	n/a	n/a	n/a	n/a	n/a	n/a	n/a
372.189	1	10	1320	1320	1	0	0	1	0	0	0.4	0.4	5
373.5222	1	20	n/a	n/a	1	n/a	n/a	n/a	n/a	n/a	n/a	n/a	n/a
375.3402	1	80	n/a	n/a	1	n/a	n/a	n/a	n/a	n/a	n/a	n/a	n/a
375.4402	1	80	n/a	n/a	1	n/a	n/a	n/a	n/a	n/a	n/a	n/a	n/a
375.6554	1	31	n/a	n/a	1	n/a	n/a	n/a	n/a	n/a	n/a	n/a	n/a
377.672	1	10	908.8	908.8	1	0	0	1	0	0	0.1	0.1	6
378.5886	1	20	n/a	n/a	1	n/a	n/a	n/a	n/a	n/a	n/a	n/a	n/a
380.3446	1	80	n/a	n/a	1	n/a	n/a	n/a	n/a	n/a	n/a	n/a	n/a
380.4446	1	80	n/a	n/a	1	n/a	n/a	n/a	n/a	n/a	n/a	n/a	n/a
380.6552	1	31	n/a	n/a	1	n/a	n/a	n/a	n/a	n/a	n/a	n/a	n/a
382.6716	1	10	837	837	1	0	0	1	0	0	0.3	0.3	7
383.5216	1	20	n/a	n/a	1	n/a	n/a	n/a	n/a	n/a	n/a	n/a	n/a
384.9186	1	80	n/a	n/a	1	n/a	n/a	n/a	n/a	n/a	n/a	n/a	n/a
385.0186	1	80	n/a	n/a	1	n/a	n/a	n/a	n/a	n/a	n/a	n/a	n/a
385.2216	1	31	n/a	n/a	1	n/a	n/a	n/a	n/a	n/a	n/a	n/a	n/a
387.238	1	10	670.5	670.5	1	0	0	1	0	0	0.1	0.1	8
387.9214	1	20	n/a	n/a	1	n/a	n/a	n/a	n/a	n/a	n/a	n/a	n/a
389.1784	1	80	n/a	n/a	1	n/a	n/a	n/a	n/a	n/a	n/a	n/a	n/a
389.2784	1	80	n/a	n/a	1	n/a	n/a	n/a	n/a	n/a	n/a	n/a	n/a
389.488	1	31	n/a	n/a	1	n/a	n/a	n/a	n/a	n/a	n/a	n/a	n/a
391.5044	1	10	1108	1108	1	0	0	1	0	0	0.6	0.6	9
392.621	1	20	n/a	n/a	1	n/a	n/a	n/a	n/a	n/a	n/a	n/a	n/a
394.532	1	80	n/a	n/a	1	n/a	n/a	n/a	n/a	n/a	n/a	n/a	n/a
394.632	1	80	n/a	n/a	1	n/a	n/a	n/a	n/a	n/a	n/a	n/a	n/a
394.8376	1	30	n/a	n/a	1	n/a	n/a	n/a	n/a	n/a	n/a	n/a	n/a
396.8542	1	10	1550.2	1550.2	1	0	0	1	0	0	0.8	0.8	10
398.4208	1	20	n/a	n/a	1	n/a	n/a	n/a	n/a	n/a	n/a	n/a	n/a
399.6268	1	80	n/a	n/a	1	n/a	n/a	n/a	n/a	n/a	n/a	n/a	n/a
399.7268	1	80	n/a	n/a	1	n/a	n/a	n/a	n/a	n/a	n/a	n/a	n/a
399.9372	1	31	n/a	n/a	1	n/a	n/a	n/a	n/a	n/a	n/a	n/a	n/a
410.97	1	10	1338	1338	1	0	0	1	0.6	0.90098	0.3	0.60147	11
412.3198	1	20	n/a	n/a	1	n/a	n/a	n/a	n/a	n/a	n/a	n/a	n/a
413.7308	1	80	n/a	n/a	1	n/a	n/a	n/a	n/a	n/a	n/a	n/a	n/a
413.8308	1	80	n/a	n/a	1	n/a	n/a	n/a	n/a	n/a	n/a	n/a	n/a
414.0364	1	30	n/a	n/a	1	n/a	n/a	n/a	n/a	n/a	n/a	n/a	n/a
416.053	1	40	n/a	n/a	1	n/a	n/a	n/a	n/a	n/a	n/a	n/a	n/a
418.0696	1	10	2894.3	2894.3	1	0	0	1	0.8	0.39878	0.7	0.9375	12
420.9694	1	20	n/a	n/a	1	n/a	n/a	n/a	n/a	n/a	n/a	n/a	n/a
422.9144	1	80	n/a	n/a	1	n/a	n/a	n/a	n/a	n/a	n/a	n/a	n/a
423.0144	1	80	n/a	n/a	1	n/a	n/a	n/a	n/a	n/a	n/a	n/a	n/a
423.2192	1	31	n/a	n/a	1	n/a	n/a	n/a	n/a	n/a	n/a	n/a	n/a
425.2358	1	40	n/a	n/a	1	n/a	n/a	n/a	n/a	n/a	n/a	n/a	n/a
427.2524	1	10	1359.3	1359.3	1	0	0	1	0.7	0.0044936	0.8	0.34382	13
428.6188	1	20	n/a	n/a	1	n/a	n/a	n/a	n/a	n/a	n/a	n/a	n/a
430.611	1	80	n/a	n/a	1	n/a	n/a	n/a	n/a	n/a	n/a	n/a	n/a
430.711	1	80	n/a	n/a	1	n/a	n/a	n/a	n/a	n/a	n/a	n/a	n/a
430.9188	1	31	n/a	n/a	1	n/a	n/a	n/a	n/a	n/a	n/a	n/a	n/a
432.9354	1	40	n/a	n/a	1	n/a	n/a	n/a	n/a	n/a	n/a	n/a	n/a
434.9518	1	10	1979.6	1979.6	1	0	0	1	0.8	0.3296	0.9	0.9375	14
436.935	1	20	n/a	n/a	1	n/a	n/a	n/a	n/a	n/a	n/a	n/a	n/a
438.475	1	80	n/a	n/a	1	n/a	n/a	n/a	n/a	n/a	n/a	n/a	n/a
438.575	1	80	n/a	n/a	1	n/a	n/a	n/a	n/a	n/a	n/a	n/a	n/a
438.785	1	31	n/a	n/a	1	n/a	n/a	n/a	n/a	n/a	n/a	n/a	n/a
440.8014	1	40	n/a	n/a	1	n/a	n/a	n/a	n/a	n/a	n/a	n/a	n/a
442.818	1	10	1633.2	1633.2	1	0	0	1	0.4	0.66021	0.6	0.77347	15
444.468	1	20	n/a	n/a	1	n/a	n/a	n/a	n/a	n/a	n/a	n/a	n/a
446.339	1	80	n/a	n/a	1	n/a	n/a	n/a	n/a	n/a	n/a	n/a	n/a
446.439	1	80	n/a	n/a	1	n/a	n/a	n/a	n/a	n/a	n/a	n/a	n/a
446.6512	1	31	n/a	n/a	1	n/a	n/a	n/a	n/a	n/a	n/a	n/a	n/a
448.6676	1	40	n/a	n/a	1	n/a	n/a	n/a	n/a	n/a	n/a	n/a	n/a
450.6842	1	10	1382.9	1382.9	1	0	0	1	0.4	0.89926	0.3	0.43284	16
452.0842	1	20	n/a	n/a	1	n/a	n/a	n/a	n/a	n/a	n/a	n/a	n/a
453.9822	1	80	n/a	n/a	1	n/a	n/a	n/a	n/a	n/a	n/a	n/a	n/a
454.0822	1	80	n/a	n/a	1	n/a	n/a	n/a	n/a	n/a	n/a	n/a	n/a
454.284	1	31	n/a	n/a	1	n/a	n/a	n/a	n/a	n/a	n/a	n/a	n/a
456.3006	1	40	n/a	n/a	1	n/a	n/a	n/a	n/a	n/a	n/a	n/a	n/a
458.3172	1	10	837.8	837.8	1	0	0	1	0.4	0.4608	0.6	0.64053	17
459.167	1	20	n/a	n/a	1	n/a	n/a	n/a	n/a	n/a	n/a	n/a	n/a
461.025	1	80	n/a	n/a	1	n/a	n/a	n/a	n/a	n/a	n/a	n/a	n/a
461.125	1	80	n/a	n/a	1	n/a	n/a	n/a	n/a	n/a	n/a	n/a	n/a
461.3336	1	30	n/a	n/a	1	n/a	n/a	n/a	n/a	n/a	n/a	n/a	n/a
463.3502	1	40	n/a	n/a	1	n/a	n/a	n/a	n/a	n/a	n/a	n/a	n/a
465.3666	1	10	956.1	956.1	1	0	0	1	0.6	0.59231	0.6	0.88846	18
466.3332	1	20	n/a	n/a	1	n/a	n/a	n/a	n/a	n/a	n/a	n/a	n/a
468.2654	1	80	n/a	n/a	1	n/a	n/a	n/a	n/a	n/a	n/a	n/a	n/a
468.3654	1	80	n/a	n/a	1	n/a	n/a	n/a	n/a	n/a	n/a	n/a	n/a
468.5832	1	30	n/a	n/a	1	n/a	n/a	n/a	n/a	n/a	n/a	n/a	n/a
470.5998	1	40	n/a	n/a	1	n/a	n/a	n/a	n/a	n/a	n/a	n/a	n/a
472.6162	1	10	1722.3	1722.3	1	0	0	1	0.7	0.43681	0.5	0.35256	19
474.3494	1	20	n/a	n/a	1	n/a	n/a	n/a	n/a	n/a	n/a	n/a	n/a
475.8514	1	80	n/a	n/a	1	n/a	n/a	n/a	n/a	n/a	n/a	n/a	n/a
475.9514	1	80	n/a	n/a	1	n/a	n/a	n/a	n/a	n/a	n/a	n/a	n/a
476.166	1	30	n/a	n/a	1	n/a	n/a	n/a	n/a	n/a	n/a	n/a	n/a
478.1826	1	40	n/a	n/a	1	n/a	n/a	n/a	n/a	n/a	n/a	n/a	n/a
480.1992	1	10	1035.2	1035.2	1	0	0	1	0.7	0.32937	0.7	0.76852	20
481.249	1	20	n/a	n/a	1	n/a	n/a	n/a	n/a	n/a	n/a	n/a	n/a
482.685	1	80	n/a	n/a	1	n/a	n/a	n/a	n/a	n/a	n/a	n/a	n/a
482.785	1	80	n/a	n/a	1	n/a	n/a	n/a	n/a	n/a	n/a	n/a	n/a
482.999	1	31	n/a	n/a	1	n/a	n/a	n/a	n/a	n/a	n/a	n/a	n/a
485.0156	1	40	n/a	n/a	1	n/a	n/a	n/a	n/a	n/a	n/a	n/a	n/a
496.0482	1	10	1409.8	1409.8	1	0	0	1	0	0	0.6	0.6	21
497.4648	1	20	n/a	n/a	1	n/a	n/a	n/a	n/a	n/a	n/a	n/a	n/a
499.3358	1	80	n/a	n/a	1	n/a	n/a	n/a	n/a	n/a	n/a	n/a	n/a
499.4358	1	80	n/a	n/a	1	n/a	n/a	n/a	n/a	n/a	n/a	n/a	n/a
499.648	1	30	n/a	n/a	1	n/a	n/a	n/a	n/a	n/a	n/a	n/a	n/a
501.6646	1	10	1201.4	1201.4	1	0	0	1	0	0	0.7	0.7	22
502.881	1	20	n/a	n/a	1	n/a	n/a	n/a	n/a	n/a	n/a	n/a	n/a
504.5532	1	80	n/a	n/a	1	n/a	n/a	n/a	n/a	n/a	n/a	n/a	n/a
504.6532	1	80	n/a	n/a	1	n/a	n/a	n/a	n/a	n/a	n/a	n/a	n/a
504.8644	1	31	n/a	n/a	1	n/a	n/a	n/a	n/a	n/a	n/a	n/a	n/a
506.8808	1	10	1296.9	1296.9	1	0	0	1	0	0	0.9	0.9	23
508.1808	1	20	n/a	n/a	1	n/a	n/a	n/a	n/a	n/a	n/a	n/a	n/a
509.6958	1	80	n/a	n/a	1	n/a	n/a	n/a	n/a	n/a	n/a	n/a	n/a
509.7958	1	80	n/a	n/a	1	n/a	n/a	n/a	n/a	n/a	n/a	n/a	n/a
509.9974	1	31	n/a	n/a	1	n/a	n/a	n/a	n/a	n/a	n/a	n/a	n/a
512.0138	1	10	739.8	739.8	1	0	0	1	0	0	0.1	0.1	24
512.7638	1	20	n/a	n/a	1	n/a	n/a	n/a	n/a	n/a	n/a	n/a	n/a
513.9118	1	80	n/a	n/a	1	n/a	n/a	n/a	n/a	n/a	n/a	n/a	n/a
514.0118	1	80	n/a	n/a	1	n/a	n/a	n/a	n/a	n/a	n/a	n/a	n/a
514.2138	1	31	n/a	n/a	1	n/a	n/a	n/a	n/a	n/a	n/a	n/a	n/a
516.2304	1	10	875.3	875.3	1	0	0	1	0	0	0.1	0.1	25
517.1136	1	20	n/a	n/a	1	n/a	n/a	n/a	n/a	n/a	n/a	n/a	n/a
518.3496	1	80	n/a	n/a	1	n/a	n/a	n/a	n/a	n/a	n/a	n/a	n/a
518.4496	1	80	n/a	n/a	1	n/a	n/a	n/a	n/a	n/a	n/a	n/a	n/a
518.6634	1	31	n/a	n/a	1	n/a	n/a	n/a	n/a	n/a	n/a	n/a	n/a
520.68	1	10	873.5	873.5	1	0	0	1	0	0	0.6	0.6	26
521.5634	1	20	n/a	n/a	1	n/a	n/a	n/a	n/a	n/a	n/a	n/a	n/a
522.6074	1	80	n/a	n/a	1	n/a	n/a	n/a	n/a	n/a	n/a	n/a	n/a
522.7074	1	80	n/a	n/a	1	n/a	n/a	n/a	n/a	n/a	n/a	n/a	n/a
522.9132	1	30	n/a	n/a	1	n/a	n/a	n/a	n/a	n/a	n/a	n/a	n/a
524.9298	1	10	623.6	623.6	1	0	0	1	0	0	0.7	0.7	27
525.563	1	20	n/a	n/a	1	n/a	n/a	n/a	n/a	n/a	n/a	n/a	n/a
527.183	1	80	n/a	n/a	1	n/a	n/a	n/a	n/a	n/a	n/a	n/a	n/a
527.283	1	80	n/a	n/a	1	n/a	n/a	n/a	n/a	n/a	n/a	n/a	n/a
527.4962	1	31	n/a	n/a	1	n/a	n/a	n/a	n/a	n/a	n/a	n/a	n/a
529.5128	1	10	616.5	616.5	1	0	0	1	0	0	0.2	0.2	28
530.1462	1	20	n/a	n/a	1	n/a	n/a	n/a	n/a	n/a	n/a	n/a	n/a
531.9632	1	80	n/a	n/a	1	n/a	n/a	n/a	n/a	n/a	n/a	n/a	n/a
532.0632	1	80	n/a	n/a	1	n/a	n/a	n/a	n/a	n/a	n/a	n/a	n/a
532.2794	1	31	n/a	n/a	1	n/a	n/a	n/a	n/a	n/a	n/a	n/a	n/a
534.2958	1	10	585.2	585.2	1	0	0	1	0	0	0.1	0.1	29
534.8958	1	20	n/a	n/a	1	n/a	n/a	n/a	n/a	n/a	n/a	n/a	n/a
535.9588	1	80	n/a	n/a	1	n/a	n/a	n/a	n/a	n/a	n/a	n/a	n/a
536.0588	1	80	n/a	n/a	1	n/a	n/a	n/a	n/a	n/a	n/a	n/a	n/a
536.2624	1	30	n/a	n/a	1	n/a	n/a	n/a	n/a	n/a	n/a	n/a	n/a
538.279	1	10	490	490	1	0	0	1	0	0	0.2	0.2	30
538.779	1	20	n/a	n/a	1	n/a	n/a	n/a	n/a	n/a	n/a	n/a	n/a
540.437	1	80	n/a	n/a	1	n/a	n/a	n/a	n/a	n/a	n/a	n/a	n/a
540.537	1	80	n/a	n/a	1	n/a	n/a	n/a	n/a	n/a	n/a	n/a	n/a
540.7454	1	31	n/a	n/a	1	n/a	n/a	n/a	n/a	n/a	n/a	n/a	n/a
551.7782	1	10	958.6	958.6	1	0	0	1	0.4	0.0073856	0.1	0.020833	31
552.7448	1	20	n/a	n/a	1	n/a	n/a	n/a	n/a	n/a	n/a	n/a	n/a
554.6558	1	80	n/a	n/a	1	n/a	n/a	n/a	n/a	n/a	n/a	n/a	n/a
554.7558	1	80	n/a	n/a	1	n/a	n/a	n/a	n/a	n/a	n/a	n/a	n/a
554.9614	1	31	n/a	n/a	1	n/a	n/a	n/a	n/a	n/a	n/a	n/a	n/a
556.9778	1	40	n/a	n/a	1	n/a	n/a	n/a	n/a	n/a	n/a	n/a	n/a
558.9944	1	10	1214.1	1214.1	1	0	0	1	0.5	0.31036	0.6	0.51036	32
560.211	1	20	n/a	n/a	1	n/a	n/a	n/a	n/a	n/a	n/a	n/a	n/a
562.001	1	80	n/a	n/a	1	n/a	n/a	n/a	n/a	n/a	n/a	n/a	n/a
562.101	1	80	n/a	n/a	1	n/a	n/a	n/a	n/a	n/a	n/a	n/a	n/a
562.3108	1	31	n/a	n/a	1	n/a	n/a	n/a	n/a	n/a	n/a	n/a	n/a
564.3274	1	40	n/a	n/a	1	n/a	n/a	n/a	n/a	n/a	n/a	n/a	n/a
566.344	1	10	1592.4	1592.4	1	0	0	1	0.6	0.92283	0.1	0.13424	33
567.9438	1	20	n/a	n/a	1	n/a	n/a	n/a	n/a	n/a	n/a	n/a	n/a
569.5558	1	80	n/a	n/a	1	n/a	n/a	n/a	n/a	n/a	n/a	n/a	n/a
569.6558	1	80	n/a	n/a	1	n/a	n/a	n/a	n/a	n/a	n/a	n/a	n/a
569.8604	1	31	n/a	n/a	1	n/a	n/a	n/a	n/a	n/a	n/a	n/a	n/a
571.877	1	40	n/a	n/a	1	n/a	n/a	n/a	n/a	n/a	n/a	n/a	n/a
573.8936	1	10	1594.7	1594.7	1	0	0	1	0.5	0.58284	0.3	0.18284	34
575.4934	1	20	n/a	n/a	1	n/a	n/a	n/a	n/a	n/a	n/a	n/a	n/a
577.1194	1	80	n/a	n/a	1	n/a	n/a	n/a	n/a	n/a	n/a	n/a	n/a
577.2194	1	80	n/a	n/a	1	n/a	n/a	n/a	n/a	n/a	n/a	n/a	n/a
577.4266	1	31	n/a	n/a	1	n/a	n/a	n/a	n/a	n/a	n/a	n/a	n/a
579.4432	1	40	n/a	n/a	1	n/a	n/a	n/a	n/a	n/a	n/a	n/a	n/a
581.4598	1	10	1436.3	1436.3	1	0	0	1	0.5	0.93986	0.3	0.53986	35
582.9096	1	20	n/a	n/a	1	n/a	n/a	n/a	n/a	n/a	n/a	n/a	n/a
584.6226	1	80	n/a	n/a	1	n/a	n/a	n/a	n/a	n/a	n/a	n/a	n/a
584.7226	1	80	n/a	n/a	1	n/a	n/a	n/a	n/a	n/a	n/a	n/a	n/a
584.9262	1	31	n/a	n/a	1	n/a	n/a	n/a	n/a	n/a	n/a	n/a	n/a
586.9428	1	40	n/a	n/a	1	n/a	n/a	n/a	n/a	n/a	n/a	n/a	n/a
588.9592	1	10	1456.6	1456.6	1	0	0	1	0.5	0.28063	0.5	0.28063	36
590.4258	1	20	n/a	n/a	1	n/a	n/a	n/a	n/a	n/a	n/a	n/a	n/a
592.3918	1	80	n/a	n/a	1	n/a	n/a	n/a	n/a	n/a	n/a	n/a	n/a
592.4918	1	80	n/a	n/a	1	n/a	n/a	n/a	n/a	n/a	n/a	n/a	n/a
592.709	1	30	n/a	n/a	1	n/a	n/a	n/a	n/a	n/a	n/a	n/a	n/a
594.7256	1	40	n/a	n/a	1	n/a	n/a	n/a	n/a	n/a	n/a	n/a	n/a
596.7422	1	10	985.5	985.5	1	0	0	1	0.4	0.84618	0.1	0.064117	37
597.742	1	20	n/a	n/a	1	n/a	n/a	n/a	n/a	n/a	n/a	n/a	n/a
599.092	1	80	n/a	n/a	1	n/a	n/a	n/a	n/a	n/a	n/a	n/a	n/a
599.192	1	80	n/a	n/a	1	n/a	n/a	n/a	n/a	n/a	n/a	n/a	n/a
599.4086	1	31	n/a	n/a	1	n/a	n/a	n/a	n/a	n/a	n/a	n/a	n/a
601.4252	1	40	n/a	n/a	1	n/a	n/a	n/a	n/a	n/a	n/a	n/a	n/a
603.4418	1	10	877.9	877.9	1	0	0	1	0.7	0.66041	0.5	0.8743	38
604.325	1	20	n/a	n/a	1	n/a	n/a	n/a	n/a	n/a	n/a	n/a	n/a
606.066	1	80	n/a	n/a	1	n/a	n/a	n/a	n/a	n/a	n/a	n/a	n/a
606.166	1	80	n/a	n/a	1	n/a	n/a	n/a	n/a	n/a	n/a	n/a	n/a
606.3748	1	31	n/a	n/a	1	n/a	n/a	n/a	n/a	n/a	n/a	n/a	n/a
608.3914	1	40	n/a	n/a	1	n/a	n/a	n/a	n/a	n/a	n/a	n/a	n/a
610.408	1	10	1031.4	1031.4	1	0	0	1	0.4	0.52158	0.6	0.68105	39
611.458	1	20	n/a	n/a	1	n/a	n/a	n/a	n/a	n/a	n/a	n/a	n/a
612.94	1	80	n/a	n/a	1	n/a	n/a	n/a	n/a	n/a	n/a	n/a	n/a
613.04	1	80	n/a	n/a	1	n/a	n/a	n/a	n/a	n/a	n/a	n/a	n/a
613.2578	1	31	n/a	n/a	1	n/a	n/a	n/a	n/a	n/a	n/a	n/a	n/a
615.2744	1	40	n/a	n/a	1	n/a	n/a	n/a	n/a	n/a	n/a	n/a	n/a
617.291	1	10	3492.3	3492.3	1	0	0	1	0.5	0.78181	0.4	0.58181	40
620.7908	1	20	n/a	n/a	1	n/a	n/a	n/a	n/a	n/a	n/a	n/a	n/a
622.2568	1	80	n/a	n/a	1	n/a	n/a	n/a	n/a	n/a	n/a	n/a	n/a
622.3568	1	80	n/a	n/a	1	n/a	n/a	n/a	n/a	n/a	n/a	n/a	n/a
622.574	1	30	n/a	n/a	1	n/a	n/a	n/a	n/a	n/a	n/a	n/a	n/a
624.5904	1	40	n/a	n/a	1	n/a	n/a	n/a	n/a	n/a	n/a	n/a	n/a
677.304	1	10	757.9	757.9	1	0	0	1	0	0	0.3	0.3	1
678.0706	1	20	n/a	n/a	1	n/a	n/a	n/a	n/a	n/a	n/a	n/a	n/a
679.7836	1	80	n/a	n/a	1	n/a	n/a	n/a	n/a	n/a	n/a	n/a	n/a
679.8836	1	80	n/a	n/a	1	n/a	n/a	n/a	n/a	n/a	n/a	n/a	n/a
680.0872	1	31	n/a	n/a	1	n/a	n/a	n/a	n/a	n/a	n/a	n/a	n/a
682.1036	1	10	710	710	1	0	0	1	0	0	0.9	0.9	2
682.8204	1	20	n/a	n/a	1	n/a	n/a	n/a	n/a	n/a	n/a	n/a	n/a
683.8994	1	80	n/a	n/a	1	n/a	n/a	n/a	n/a	n/a	n/a	n/a	n/a
683.9994	1	80	n/a	n/a	1	n/a	n/a	n/a	n/a	n/a	n/a	n/a	n/a
684.2036	1	31	n/a	n/a	1	n/a	n/a	n/a	n/a	n/a	n/a	n/a	n/a
686.2202	1	10	497.6	497.6	1	0	0	1	0	0	0.1	0.1	3
686.72	1	20	n/a	n/a	1	n/a	n/a	n/a	n/a	n/a	n/a	n/a	n/a
688.3262	1	80	n/a	n/a	1	n/a	n/a	n/a	n/a	n/a	n/a	n/a	n/a
688.426	1	80	n/a	n/a	1	n/a	n/a	n/a	n/a	n/a	n/a	n/a	n/a
688.6366	1	31	n/a	n/a	1	n/a	n/a	n/a	n/a	n/a	n/a	n/a	n/a
690.6532	1	10	832.3	832.3	1	0	0	1	0	0	0.4	0.4	4
691.5032	1	20	n/a	n/a	1	n/a	n/a	n/a	n/a	n/a	n/a	n/a	n/a
693.2532	1	80	n/a	n/a	1	n/a	n/a	n/a	n/a	n/a	n/a	n/a	n/a
693.3532	1	80	n/a	n/a	1	n/a	n/a	n/a	n/a	n/a	n/a	n/a	n/a
693.5696	1	30	n/a	n/a	1	n/a	n/a	n/a	n/a	n/a	n/a	n/a	n/a
695.5862	1	10	875.2	875.2	1	0	0	1	0	0	0.9	0.9	5
696.4694	1	20	n/a	n/a	1	n/a	n/a	n/a	n/a	n/a	n/a	n/a	n/a
698.3526	1	80	n/a	n/a	1	n/a	n/a	n/a	n/a	n/a	n/a	n/a	n/a
698.4526	1	80	n/a	n/a	1	n/a	n/a	n/a	n/a	n/a	n/a	n/a	n/a
698.6694	1	30	n/a	n/a	1	n/a	n/a	n/a	n/a	n/a	n/a	n/a	n/a
700.686	1	10	703.4	703.4	1	0	0	1	0	0	0.7	0.7	6
701.4026	1	20	n/a	n/a	1	n/a	n/a	n/a	n/a	n/a	n/a	n/a	n/a
702.7856	1	80	n/a	n/a	1	n/a	n/a	n/a	n/a	n/a	n/a	n/a	n/a
702.8856	1	80	n/a	n/a	1	n/a	n/a	n/a	n/a	n/a	n/a	n/a	n/a
703.1024	1	30	n/a	n/a	1	n/a	n/a	n/a	n/a	n/a	n/a	n/a	n/a
705.119	1	10	2318.1	2318.1	1	0	0	1	0	0	0.5	0.5	7
707.4522	1	20	n/a	n/a	1	n/a	n/a	n/a	n/a	n/a	n/a	n/a	n/a
709.1552	1	80	n/a	n/a	1	n/a	n/a	n/a	n/a	n/a	n/a	n/a	n/a
709.2552	1	80	n/a	n/a	1	n/a	n/a	n/a	n/a	n/a	n/a	n/a	n/a
709.4688	1	31	n/a	n/a	1	n/a	n/a	n/a	n/a	n/a	n/a	n/a	n/a
711.4852	1	10	639.8	639.8	1	0	0	1	0	0	0.8	0.8	8
712.1352	1	20	n/a	n/a	1	n/a	n/a	n/a	n/a	n/a	n/a	n/a	n/a
713.3672	1	80	n/a	n/a	1	n/a	n/a	n/a	n/a	n/a	n/a	n/a	n/a
713.4672	1	80	n/a	n/a	1	n/a	n/a	n/a	n/a	n/a	n/a	n/a	n/a
713.6852	1	30	n/a	n/a	1	n/a	n/a	n/a	n/a	n/a	n/a	n/a	n/a
715.7016	1	10	999.2	999.2	1	0	0	1	0	0	0.1	0.1	9
716.7182	1	20	n/a	n/a	1	n/a	n/a	n/a	n/a	n/a	n/a	n/a	n/a
718.1622	1	80	n/a	n/a	1	n/a	n/a	n/a	n/a	n/a	n/a	n/a	n/a
718.2622	1	80	n/a	n/a	1	n/a	n/a	n/a	n/a	n/a	n/a	n/a	n/a
718.4682	1	31	n/a	n/a	1	n/a	n/a	n/a	n/a	n/a	n/a	n/a	n/a
720.4848	1	10	728.1	728.1	1	0	0	1	0	0	0.3	0.3	10
721.218	1	20	n/a	n/a	1	n/a	n/a	n/a	n/a	n/a	n/a	n/a	n/a
723.035	1	80	n/a	n/a	1	n/a	n/a	n/a	n/a	n/a	n/a	n/a	n/a
723.135	1	80	n/a	n/a	1	n/a	n/a	n/a	n/a	n/a	n/a	n/a	n/a
723.3512	1	31	n/a	n/a	1	n/a	n/a	n/a	n/a	n/a	n/a	n/a	n/a
734.3838	1	10	1180.6	1180.6	1	0	0	1	0.4	0.83661	0.1	0.057741	11
735.5672	1	20	n/a	n/a	1	n/a	n/a	n/a	n/a	n/a	n/a	n/a	n/a
736.6982	1	80	n/a	n/a	1	n/a	n/a	n/a	n/a	n/a	n/a	n/a	n/a
736.7982	1	80	n/a	n/a	1	n/a	n/a	n/a	n/a	n/a	n/a	n/a	n/a
737.0004	1	31	n/a	n/a	1	n/a	n/a	n/a	n/a	n/a	n/a	n/a	n/a
739.017	1	40	n/a	n/a	1	n/a	n/a	n/a	n/a	n/a	n/a	n/a	n/a
741.0334	1	10	1010.9	1010.9	1	0	0	1	0.6	0.57373	0.9	0.96875	12
742.05	1	20	n/a	n/a	1	n/a	n/a	n/a	n/a	n/a	n/a	n/a	n/a
743.4172	1	80	n/a	n/a	1	n/a	n/a	n/a	n/a	n/a	n/a	n/a	n/a
743.5172	1	80	n/a	n/a	1	n/a	n/a	n/a	n/a	n/a	n/a	n/a	n/a
743.7334	1	31	n/a	n/a	1	n/a	n/a	n/a	n/a	n/a	n/a	n/a	n/a
745.7498	1	40	n/a	n/a	1	n/a	n/a	n/a	n/a	n/a	n/a	n/a	n/a
747.7664	1	10	1701.7	1701.7	1	0	0	1	0.4	0.82869	0.9	0.97917	13
749.483	1	20	n/a	n/a	1	n/a	n/a	n/a	n/a	n/a	n/a	n/a	n/a
750.857	1	80	n/a	n/a	1	n/a	n/a	n/a	n/a	n/a	n/a	n/a	n/a
750.957	1	80	n/a	n/a	1	n/a	n/a	n/a	n/a	n/a	n/a	n/a	n/a
751.1662	1	31	n/a	n/a	1	n/a	n/a	n/a	n/a	n/a	n/a	n/a	n/a
753.1828	1	40	n/a	n/a	1	n/a	n/a	n/a	n/a	n/a	n/a	n/a	n/a
755.1994	1	10	748.8	748.8	1	0	0	1	0.5	0.15904	0.1	0.025	14
755.966	1	20	n/a	n/a	1	n/a	n/a	n/a	n/a	n/a	n/a	n/a	n/a
757.131	1	80	n/a	n/a	1	n/a	n/a	n/a	n/a	n/a	n/a	n/a	n/a
757.231	1	80	n/a	n/a	1	n/a	n/a	n/a	n/a	n/a	n/a	n/a	n/a
757.4326	1	31	n/a	n/a	1	n/a	n/a	n/a	n/a	n/a	n/a	n/a	n/a
759.449	1	40	n/a	n/a	1	n/a	n/a	n/a	n/a	n/a	n/a	n/a	n/a
761.4656	1	10	1298.3	1298.3	1	0	0	1	0.5	0.74224	0.3	0.34224	15
762.7822	1	20	n/a	n/a	1	n/a	n/a	n/a	n/a	n/a	n/a	n/a	n/a
764.1132	1	80	n/a	n/a	1	n/a	n/a	n/a	n/a	n/a	n/a	n/a	n/a
764.2132	1	80	n/a	n/a	1	n/a	n/a	n/a	n/a	n/a	n/a	n/a	n/a
764.4154	1	31	n/a	n/a	1	n/a	n/a	n/a	n/a	n/a	n/a	n/a	n/a
766.432	1	40	n/a	n/a	1	n/a	n/a	n/a	n/a	n/a	n/a	n/a	n/a
768.4486	1	10	1595.2	1595.2	1	0	0	1	0.6	0.96464	0.1	0.19695	16
770.0484	1	20	n/a	n/a	1	n/a	n/a	n/a	n/a	n/a	n/a	n/a	n/a
771.4524	1	80	n/a	n/a	1	n/a	n/a	n/a	n/a	n/a	n/a	n/a	n/a
771.5524	1	80	n/a	n/a	1	n/a	n/a	n/a	n/a	n/a	n/a	n/a	n/a
771.765	1	31	n/a	n/a	1	n/a	n/a	n/a	n/a	n/a	n/a	n/a	n/a
773.7816	1	40	n/a	n/a	1	n/a	n/a	n/a	n/a	n/a	n/a	n/a	n/a
775.798	1	10	2005.4	2005.4	1	0	0	1	0.6	0.66318	0.9	0.96875	17
777.8146	1	20	n/a	n/a	1	n/a	n/a	n/a	n/a	n/a	n/a	n/a	n/a
779.5376	1	80	n/a	n/a	1	n/a	n/a	n/a	n/a	n/a	n/a	n/a	n/a
779.6376	1	80	n/a	n/a	1	n/a	n/a	n/a	n/a	n/a	n/a	n/a	n/a
779.8478	1	30	n/a	n/a	1	n/a	n/a	n/a	n/a	n/a	n/a	n/a	n/a
781.8644	1	40	n/a	n/a	1	n/a	n/a	n/a	n/a	n/a	n/a	n/a	n/a
783.881	1	10	1618.5	1618.5	1	0	0	1	0.4	0.85869	0.1	0.072459	18
785.5142	1	20	n/a	n/a	1	n/a	n/a	n/a	n/a	n/a	n/a	n/a	n/a
787.2952	1	80	n/a	n/a	1	n/a	n/a	n/a	n/a	n/a	n/a	n/a	n/a
787.3952	1	80	n/a	n/a	1	n/a	n/a	n/a	n/a	n/a	n/a	n/a	n/a
787.5974	1	30	n/a	n/a	1	n/a	n/a	n/a	n/a	n/a	n/a	n/a	n/a
789.614	1	40	n/a	n/a	1	n/a	n/a	n/a	n/a	n/a	n/a	n/a	n/a
791.6304	1	10	1260.7	1260.7	1	0	0	1	0.5	0.26911	0.6	0.46911	19
792.897	1	20	n/a	n/a	1	n/a	n/a	n/a	n/a	n/a	n/a	n/a	n/a
794.014	1	80	n/a	n/a	1	n/a	n/a	n/a	n/a	n/a	n/a	n/a	n/a
794.114	1	80	n/a	n/a	1	n/a	n/a	n/a	n/a	n/a	n/a	n/a	n/a
794.3302	1	31	n/a	n/a	1	n/a	n/a	n/a	n/a	n/a	n/a	n/a	n/a
796.3468	1	40	n/a	n/a	1	n/a	n/a	n/a	n/a	n/a	n/a	n/a	n/a
798.3634	1	10	3903.5	3903.5	1	0	0	1	0.4	0.33009	0.8	0.88673	20
802.2798	1	20	n/a	n/a	1	n/a	n/a	n/a	n/a	n/a	n/a	n/a	n/a
804.2568	1	80	n/a	n/a	1	n/a	n/a	n/a	n/a	n/a	n/a	n/a	n/a
804.3568	1	80	n/a	n/a	1	n/a	n/a	n/a	n/a	n/a	n/a	n/a	n/a
804.563	1	31	n/a	n/a	1	n/a	n/a	n/a	n/a	n/a	n/a	n/a	n/a
806.5796	1	40	n/a	n/a	1	n/a	n/a	n/a	n/a	n/a	n/a	n/a	n/a
817.6122	1	10	1022.3	1022.3	1	0	0	1	0	0	0.4	0.4	21
818.6456	1	20	n/a	n/a	1	n/a	n/a	n/a	n/a	n/a	n/a	n/a	n/a
819.6766	1	80	n/a	n/a	1	n/a	n/a	n/a	n/a	n/a	n/a	n/a	n/a
819.7766	1	80	n/a	n/a	1	n/a	n/a	n/a	n/a	n/a	n/a	n/a	n/a
819.9788	1	31	n/a	n/a	1	n/a	n/a	n/a	n/a	n/a	n/a	n/a	n/a
821.9954	1	10	719.1	719.1	1	0	0	1	0	0	0.2	0.2	22
822.7286	1	20	n/a	n/a	1	n/a	n/a	n/a	n/a	n/a	n/a	n/a	n/a
824.0346	1	80	n/a	n/a	1	n/a	n/a	n/a	n/a	n/a	n/a	n/a	n/a
824.1346	1	80	n/a	n/a	1	n/a	n/a	n/a	n/a	n/a	n/a	n/a	n/a
824.3452	1	31	n/a	n/a	1	n/a	n/a	n/a	n/a	n/a	n/a	n/a	n/a
826.3618	1	10	2112.6	2112.6	1	0	0	1	0	0	0.4	0.4	23
828.4782	1	20	n/a	n/a	1	n/a	n/a	n/a	n/a	n/a	n/a	n/a	n/a
830.1422	1	80	n/a	n/a	1	n/a	n/a	n/a	n/a	n/a	n/a	n/a	n/a
830.2422	1	80	n/a	n/a	1	n/a	n/a	n/a	n/a	n/a	n/a	n/a	n/a
830.4448	1	30	n/a	n/a	1	n/a	n/a	n/a	n/a	n/a	n/a	n/a	n/a
832.4614	1	10	588.9	588.9	1	0	0	1	0	0	0.2	0.2	24
833.0614	1	20	n/a	n/a	1	n/a	n/a	n/a	n/a	n/a	n/a	n/a	n/a
834.4434	1	80	n/a	n/a	1	n/a	n/a	n/a	n/a	n/a	n/a	n/a	n/a
834.5434	1	80	n/a	n/a	1	n/a	n/a	n/a	n/a	n/a	n/a	n/a	n/a
834.7612	1	30	n/a	n/a	1	n/a	n/a	n/a	n/a	n/a	n/a	n/a	n/a
836.7778	1	10	816.4	816.4	1	0	0	1	0	0	0.9	0.9	25
837.611	1	20	n/a	n/a	1	n/a	n/a	n/a	n/a	n/a	n/a	n/a	n/a
839.025	1	80	n/a	n/a	1	n/a	n/a	n/a	n/a	n/a	n/a	n/a	n/a
839.125	1	80	n/a	n/a	1	n/a	n/a	n/a	n/a	n/a	n/a	n/a	n/a
839.3276	1	31	n/a	n/a	1	n/a	n/a	n/a	n/a	n/a	n/a	n/a	n/a
841.3442	1	10	905.9	905.9	1	0	0	1	0	0	0.4	0.4	26
842.2608	1	20	n/a	n/a	1	n/a	n/a	n/a	n/a	n/a	n/a	n/a	n/a
844.0018	1	80	n/a	n/a	1	n/a	n/a	n/a	n/a	n/a	n/a	n/a	n/a
844.1018	1	80	n/a	n/a	1	n/a	n/a	n/a	n/a	n/a	n/a	n/a	n/a
844.3106	1	31	n/a	n/a	1	n/a	n/a	n/a	n/a	n/a	n/a	n/a	n/a
846.3272	1	10	1890.7	1890.7	1	0	0	1	0	0	0.6	0.6	27
848.227	1	20	n/a	n/a	1	n/a	n/a	n/a	n/a	n/a	n/a	n/a	n/a
849.991	1	80	n/a	n/a	1	n/a	n/a	n/a	n/a	n/a	n/a	n/a	n/a
850.091	1	80	n/a	n/a	1	n/a	n/a	n/a	n/a	n/a	n/a	n/a	n/a
850.2936	1	31	n/a	n/a	1	n/a	n/a	n/a	n/a	n/a	n/a	n/a	n/a
852.3102	1	10	3251.6	3251.6	1	0	0	1	0	0	0.7	0.7	28
855.5766	1	20	n/a	n/a	1	n/a	n/a	n/a	n/a	n/a	n/a	n/a	n/a
857.0126	1	80	n/a	n/a	1	n/a	n/a	n/a	n/a	n/a	n/a	n/a	n/a
857.1126	1	80	n/a	n/a	1	n/a	n/a	n/a	n/a	n/a	n/a	n/a	n/a
857.3266	1	30	n/a	n/a	1	n/a	n/a	n/a	n/a	n/a	n/a	n/a	n/a
859.343	1	10	1450.5	1450.5	1	0	0	1	0	0	0.3	0.3	29
860.8096	1	20	n/a	n/a	1	n/a	n/a	n/a	n/a	n/a	n/a	n/a	n/a
862.2136	1	80	n/a	n/a	1	n/a	n/a	n/a	n/a	n/a	n/a	n/a	n/a
862.3136	1	80	n/a	n/a	1	n/a	n/a	n/a	n/a	n/a	n/a	n/a	n/a
862.5262	1	31	n/a	n/a	1	n/a	n/a	n/a	n/a	n/a	n/a	n/a	n/a
864.5428	1	10	2282.7	2282.7	1	0	0	1	0	0	0.4	0.4	30
866.8426	1	20	n/a	n/a	1	n/a	n/a	n/a	n/a	n/a	n/a	n/a	n/a
867.9036	1	80	n/a	n/a	1	n/a	n/a	n/a	n/a	n/a	n/a	n/a	n/a
868.0036	1	80	n/a	n/a	1	n/a	n/a	n/a	n/a	n/a	n/a	n/a	n/a
868.2092	1	31	n/a	n/a	1	n/a	n/a	n/a	n/a	n/a	n/a	n/a	n/a
879.2418	1	10	3599.2	3599.2	1	0	0	1	0.8	0.59627	0.4	0.38506	31
882.8584	1	20	n/a	n/a	1	n/a	n/a	n/a	n/a	n/a	n/a	n/a	n/a
884.2014	1	80	n/a	n/a	1	n/a	n/a	n/a	n/a	n/a	n/a	n/a	n/a
884.3014	1	80	n/a	n/a	1	n/a	n/a	n/a	n/a	n/a	n/a	n/a	n/a
884.5082	1	30	n/a	n/a	1	n/a	n/a	n/a	n/a	n/a	n/a	n/a	n/a
886.5248	1	40	n/a	n/a	1	n/a	n/a	n/a	n/a	n/a	n/a	n/a	n/a
888.5414	1	10	2843.6	2843.6	1	0	0	1	0.6	0.29318	0.9	0.96875	32
891.3912	1	20	n/a	n/a	1	n/a	n/a	n/a	n/a	n/a	n/a	n/a	n/a
892.9972	1	80	n/a	n/a	1	n/a	n/a	n/a	n/a	n/a	n/a	n/a	n/a
893.0972	1	80	n/a	n/a	1	n/a	n/a	n/a	n/a	n/a	n/a	n/a	n/a
893.3076	1	30	n/a	n/a	1	n/a	n/a	n/a	n/a	n/a	n/a	n/a	n/a
895.3242	1	40	n/a	n/a	1	n/a	n/a	n/a	n/a	n/a	n/a	n/a	n/a
897.3408	1	10	1787.9	1787.9	1	0	0	1	0.5	0.69975	0.4	0.49975	33
899.1406	1	20	n/a	n/a	1	n/a	n/a	n/a	n/a	n/a	n/a	n/a	n/a
900.5266	1	80	n/a	n/a	1	n/a	n/a	n/a	n/a	n/a	n/a	n/a	n/a
900.6266	1	80	n/a	n/a	1	n/a	n/a	n/a	n/a	n/a	n/a	n/a	n/a
900.8406	1	31	n/a	n/a	1	n/a	n/a	n/a	n/a	n/a	n/a	n/a	n/a
902.8572	1	40	n/a	n/a	1	n/a	n/a	n/a	n/a	n/a	n/a	n/a	n/a
904.8736	1	10	862.9	862.9	1	0	0	1	0.5	0.90747	0.1	0.10747	34
905.7402	1	20	n/a	n/a	1	n/a	n/a	n/a	n/a	n/a	n/a	n/a	n/a
906.9182	1	80	n/a	n/a	1	n/a	n/a	n/a	n/a	n/a	n/a	n/a	n/a
907.0182	1	80	n/a	n/a	1	n/a	n/a	n/a	n/a	n/a	n/a	n/a	n/a
907.2236	1	30	n/a	n/a	1	n/a	n/a	n/a	n/a	n/a	n/a	n/a	n/a
909.24	1	40	n/a	n/a	1	n/a	n/a	n/a	n/a	n/a	n/a	n/a	n/a
911.2566	1	10	2095.7	2095.7	1	0	0	1	0.7	0.14201	0.7	0.33136	35
913.3564	1	20	n/a	n/a	1	n/a	n/a	n/a	n/a	n/a	n/a	n/a	n/a
914.5766	1	80	n/a	n/a	1	n/a	n/a	n/a	n/a	n/a	n/a	n/a	n/a
914.6766	1	80	n/a	n/a	1	n/a	n/a	n/a	n/a	n/a	n/a	n/a	n/a
914.8898	1	30	n/a	n/a	1	n/a	n/a	n/a	n/a	n/a	n/a	n/a	n/a
916.9062	1	40	n/a	n/a	1	n/a	n/a	n/a	n/a	n/a	n/a	n/a	n/a
918.9228	1	10	1309.4	1309.4	1	0	0	1	0.5	0.83168	0.1	0.031683	36
920.2394	1	20	n/a	n/a	1	n/a	n/a	n/a	n/a	n/a	n/a	n/a	n/a
921.5204	1	80	n/a	n/a	1	n/a	n/a	n/a	n/a	n/a	n/a	n/a	n/a
921.6204	1	80	n/a	n/a	1	n/a	n/a	n/a	n/a	n/a	n/a	n/a	n/a
921.8226	1	31	n/a	n/a	1	n/a	n/a	n/a	n/a	n/a	n/a	n/a	n/a
923.8392	1	40	n/a	n/a	1	n/a	n/a	n/a	n/a	n/a	n/a	n/a	n/a
925.8558	1	10	760.3	760.3	1	0	0	1	0.4	0.61201	0.2	0.074676	37
926.6224	1	20	n/a	n/a	1	n/a	n/a	n/a	n/a	n/a	n/a	n/a	n/a
927.6294	1	80	n/a	n/a	1	n/a	n/a	n/a	n/a	n/a	n/a	n/a	n/a
927.7294	1	80	n/a	n/a	1	n/a	n/a	n/a	n/a	n/a	n/a	n/a	n/a
927.939	1	30	n/a	n/a	1	n/a	n/a	n/a	n/a	n/a	n/a	n/a	n/a
929.9556	1	40	n/a	n/a	1	n/a	n/a	n/a	n/a	n/a	n/a	n/a	n/a
931.972	1	10	707.9	707.9	1	0	0	1	0.5	0.17434	0.7	0.57434	38
932.6886	1	20	n/a	n/a	1	n/a	n/a	n/a	n/a	n/a	n/a	n/a	n/a
933.9176	1	80	n/a	n/a	1	n/a	n/a	n/a	n/a	n/a	n/a	n/a	n/a
934.0176	1	80	n/a	n/a	1	n/a	n/a	n/a	n/a	n/a	n/a	n/a	n/a
934.222	1	31	n/a	n/a	1	n/a	n/a	n/a	n/a	n/a	n/a	n/a	n/a
936.2384	1	40	n/a	n/a	1	n/a	n/a	n/a	n/a	n/a	n/a	n/a	n/a
938.255	1	10	1048.8	1048.8	1	0	0	1	0.8	0.25746	0.7	0.52982	39
939.3216	1	20	n/a	n/a	1	n/a	n/a	n/a	n/a	n/a	n/a	n/a	n/a
940.7346	1	80	n/a	n/a	1	n/a	n/a	n/a	n/a	n/a	n/a	n/a	n/a
940.8346	1	80	n/a	n/a	1	n/a	n/a	n/a	n/a	n/a	n/a	n/a	n/a
941.0382	1	31	n/a	n/a	1	n/a	n/a	n/a	n/a	n/a	n/a	n/a	n/a
943.0548	1	40	n/a	n/a	1	n/a	n/a	n/a	n/a	n/a	n/a	n/a	n/a
945.0712	1	10	1576.3	1576.3	1	0	0	1	0.7	0.30222	0.6	0.37185	40
946.6544	1	20	n/a	n/a	1	n/a	n/a	n/a	n/a	n/a	n/a	n/a	n/a
948.3656	1	80	n/a	n/a	1	n/a	n/a	n/a	n/a	n/a	n/a	n/a	n/a
948.4656	1	80	n/a	n/a	1	n/a	n/a	n/a	n/a	n/a	n/a	n/a	n/a
948.671	1	31	n/a	n/a	1	n/a	n/a	n/a	n/a	n/a	n/a	n/a	n/a
950.6876	1	40	n/a	n/a	1	n/a	n/a	n/a	n/a	n/a	n/a	n/a	n/a
1003.7934	1	10	1667.2	1667.2	1	0	1	0	0	0	0.7	0.7	1
1005.4766	1	20	n/a	n/a	1	n/a	n/a	n/a	n/a	n/a	n/a	n/a	n/a
1006.8886	1	80	n/a	n/a	1	n/a	n/a	n/a	n/a	n/a	n/a	n/a	n/a
1006.9886	1	80	n/a	n/a	1	n/a	n/a	n/a	n/a	n/a	n/a	n/a	n/a
1007.1932	1	31	n/a	n/a	1	n/a	n/a	n/a	n/a	n/a	n/a	n/a	n/a
1009.2098	1	10	730.8	730.8	1	0	1	0	0	0	0.1	0.1	2
1009.943	1	20	n/a	n/a	1	n/a	n/a	n/a	n/a	n/a	n/a	n/a	n/a
1011.121	1	80	n/a	n/a	1	n/a	n/a	n/a	n/a	n/a	n/a	n/a	n/a
1011.221	1	80	n/a	n/a	1	n/a	n/a	n/a	n/a	n/a	n/a	n/a	n/a
1011.4264	1	31	n/a	n/a	1	n/a	n/a	n/a	n/a	n/a	n/a	n/a	n/a
1013.4428	1	10	1393.5	1393.5	1	0	1	0	0	0	0.4	0.4	3
1014.8428	1	20	n/a	n/a	1	n/a	n/a	n/a	n/a	n/a	n/a	n/a	n/a
1015.8458	1	80	n/a	n/a	1	n/a	n/a	n/a	n/a	n/a	n/a	n/a	n/a
1015.9458	1	80	n/a	n/a	1	n/a	n/a	n/a	n/a	n/a	n/a	n/a	n/a
1016.1594	1	30	n/a	n/a	1	n/a	n/a	n/a	n/a	n/a	n/a	n/a	n/a
1018.176	1	10	580.3	580.3	1	0	1	0	0	0	0.1	0.1	4
1018.7592	1	20	n/a	n/a	1	n/a	n/a	n/a	n/a	n/a	n/a	n/a	n/a
1020.4942	1	80	n/a	n/a	1	n/a	n/a	n/a	n/a	n/a	n/a	n/a	n/a
1020.5942	1	80	n/a	n/a	1	n/a	n/a	n/a	n/a	n/a	n/a	n/a	n/a
1020.809	1	31	n/a	n/a	1	n/a	n/a	n/a	n/a	n/a	n/a	n/a	n/a
1022.8256	1	10	1370.5	1370.5	1	0	1	0	0	0	0.5	0.5	5
1024.2088	1	20	n/a	n/a	1	n/a	n/a	n/a	n/a	n/a	n/a	n/a	n/a
1025.9108	1	80	n/a	n/a	1	n/a	n/a	n/a	n/a	n/a	n/a	n/a	n/a
1026.0108	1	80	n/a	n/a	1	n/a	n/a	n/a	n/a	n/a	n/a	n/a	n/a
1026.2254	1	30	n/a	n/a	1	n/a	n/a	n/a	n/a	n/a	n/a	n/a	n/a
1028.242	1	10	594.1	594.1	1	0	1	0	0	0	0.1	0.1	6
1028.842	1	20	n/a	n/a	1	n/a	n/a	n/a	n/a	n/a	n/a	n/a	n/a
1030.224	1	80	n/a	n/a	1	n/a	n/a	n/a	n/a	n/a	n/a	n/a	n/a
1030.324	1	80	n/a	n/a	1	n/a	n/a	n/a	n/a	n/a	n/a	n/a	n/a
1030.5418	1	31	n/a	n/a	1	n/a	n/a	n/a	n/a	n/a	n/a	n/a	n/a
1032.5584	1	10	629.6	629.6	1	0	1	0	0	0	0.3	0.3	7
1033.1916	1	20	n/a	n/a	1	n/a	n/a	n/a	n/a	n/a	n/a	n/a	n/a
1035.0436	1	80	n/a	n/a	1	n/a	n/a	n/a	n/a	n/a	n/a	n/a	n/a
1035.1436	1	80	n/a	n/a	1	n/a	n/a	n/a	n/a	n/a	n/a	n/a	n/a
1035.3582	1	31	n/a	n/a	1	n/a	n/a	n/a	n/a	n/a	n/a	n/a	n/a
1037.3748	1	10	1237.1	1237.1	1	0	1	0	0	0	0.5	0.5	8
1038.6246	1	20	n/a	n/a	1	n/a	n/a	n/a	n/a	n/a	n/a	n/a	n/a
1040.2416	1	80	n/a	n/a	1	n/a	n/a	n/a	n/a	n/a	n/a	n/a	n/a
1040.3416	1	80	n/a	n/a	1	n/a	n/a	n/a	n/a	n/a	n/a	n/a	n/a
1040.5578	1	30	n/a	n/a	1	n/a	n/a	n/a	n/a	n/a	n/a	n/a	n/a
1042.5744	1	10	997.2	997.2	1	0	1	0	0	0	0.4	0.4	9
1043.5744	1	20	n/a	n/a	1	n/a	n/a	n/a	n/a	n/a	n/a	n/a	n/a
1045.3224	1	80	n/a	n/a	1	n/a	n/a	n/a	n/a	n/a	n/a	n/a	n/a
1045.4224	1	80	n/a	n/a	1	n/a	n/a	n/a	n/a	n/a	n/a	n/a	n/a
1045.6242	1	30	n/a	n/a	1	n/a	n/a	n/a	n/a	n/a	n/a	n/a	n/a
1047.6408	1	10	602.8	602.8	1	0	1	0	0	0	0.3	0.3	10
1048.2574	1	20	n/a	n/a	1	n/a	n/a	n/a	n/a	n/a	n/a	n/a	n/a
1050.1304	1	80	n/a	n/a	1	n/a	n/a	n/a	n/a	n/a	n/a	n/a	n/a
1050.2304	1	80	n/a	n/a	1	n/a	n/a	n/a	n/a	n/a	n/a	n/a	n/a
1050.4406	1	31	n/a	n/a	1	n/a	n/a	n/a	n/a	n/a	n/a	n/a	n/a
1061.4734	1	10	2545.9	2545.9	1	0	1	0	0.4	0.52226	0.5	0.51484	11
1064.0232	1	20	n/a	n/a	1	n/a	n/a	n/a	n/a	n/a	n/a	n/a	n/a
1065.2242	1	80	n/a	n/a	1	n/a	n/a	n/a	n/a	n/a	n/a	n/a	n/a
1065.3242	1	80	n/a	n/a	1	n/a	n/a	n/a	n/a	n/a	n/a	n/a	n/a
1065.5398	1	30	n/a	n/a	1	n/a	n/a	n/a	n/a	n/a	n/a	n/a	n/a
1067.5562	1	40	n/a	n/a	1	n/a	n/a	n/a	n/a	n/a	n/a	n/a	n/a
1069.5728	1	10	862.3	862.3	1	0	1	0	0.4	0.81247	0.1	0.041645	12
1070.4394	1	20	n/a	n/a	1	n/a	n/a	n/a	n/a	n/a	n/a	n/a	n/a
1071.9974	1	80	n/a	n/a	1	n/a	n/a	n/a	n/a	n/a	n/a	n/a	n/a
1072.0974	1	80	n/a	n/a	1	n/a	n/a	n/a	n/a	n/a	n/a	n/a	n/a
1072.306	1	31	n/a	n/a	1	n/a	n/a	n/a	n/a	n/a	n/a	n/a	n/a
1074.3226	1	40	n/a	n/a	1	n/a	n/a	n/a	n/a	n/a	n/a	n/a	n/a
1076.339	1	10	1343.8	1343.8	1	0	1	0	0.8	0.13388	0.8	0.53552	13
1077.689	1	20	n/a	n/a	1	n/a	n/a	n/a	n/a	n/a	n/a	n/a	n/a
1078.706	1	80	n/a	n/a	1	n/a	n/a	n/a	n/a	n/a	n/a	n/a	n/a
1078.806	1	80	n/a	n/a	1	n/a	n/a	n/a	n/a	n/a	n/a	n/a	n/a
1079.0222	1	30	n/a	n/a	1	n/a	n/a	n/a	n/a	n/a	n/a	n/a	n/a
1081.0388	1	40	n/a	n/a	1	n/a	n/a	n/a	n/a	n/a	n/a	n/a	n/a
1083.0554	1	10	1283.5	1283.5	1	0	1	0	0.8	0.90114	0.1	0.10455	14
1084.3552	1	20	n/a	n/a	1	n/a	n/a	n/a	n/a	n/a	n/a	n/a	n/a
1085.8962	1	80	n/a	n/a	1	n/a	n/a	n/a	n/a	n/a	n/a	n/a	n/a
1085.9962	1	80	n/a	n/a	1	n/a	n/a	n/a	n/a	n/a	n/a	n/a	n/a
1086.2052	1	31	n/a	n/a	1	n/a	n/a	n/a	n/a	n/a	n/a	n/a	n/a
1088.2218	1	40	n/a	n/a	1	n/a	n/a	n/a	n/a	n/a	n/a	n/a	n/a
1090.2382	1	10	644.4	644.4	1	0	1	0	0.4	0.74753	0.1	0.020833	15
1090.8882	1	20	n/a	n/a	1	n/a	n/a	n/a	n/a	n/a	n/a	n/a	n/a
1092.4142	1	80	n/a	n/a	1	n/a	n/a	n/a	n/a	n/a	n/a	n/a	n/a
1092.5142	1	80	n/a	n/a	1	n/a	n/a	n/a	n/a	n/a	n/a	n/a	n/a
1092.7214	1	31	n/a	n/a	1	n/a	n/a	n/a	n/a	n/a	n/a	n/a	n/a
1094.738	1	40	n/a	n/a	1	n/a	n/a	n/a	n/a	n/a	n/a	n/a	n/a
1096.7546	1	10	3183.9	3183.9	1	0	1	0	0.8	0.27867	0.9	0.9375	16
1099.9544	1	20	n/a	n/a	1	n/a	n/a	n/a	n/a	n/a	n/a	n/a	n/a
1101.9394	1	80	n/a	n/a	1	n/a	n/a	n/a	n/a	n/a	n/a	n/a	n/a
1102.0394	1	80	n/a	n/a	1	n/a	n/a	n/a	n/a	n/a	n/a	n/a	n/a
1102.2542	1	30	n/a	n/a	1	n/a	n/a	n/a	n/a	n/a	n/a	n/a	n/a
1104.2708	1	40	n/a	n/a	1	n/a	n/a	n/a	n/a	n/a	n/a	n/a	n/a
1106.2872	1	10	1410.9	1410.9	1	0	1	0	0.6	0.90877	0.1	0.11315	17
1107.7038	1	20	n/a	n/a	1	n/a	n/a	n/a	n/a	n/a	n/a	n/a	n/a
1108.8198	1	80	n/a	n/a	1	n/a	n/a	n/a	n/a	n/a	n/a	n/a	n/a
1108.9198	1	80	n/a	n/a	1	n/a	n/a	n/a	n/a	n/a	n/a	n/a	n/a
1109.1372	1	31	n/a	n/a	1	n/a	n/a	n/a	n/a	n/a	n/a	n/a	n/a
1111.1536	1	40	n/a	n/a	1	n/a	n/a	n/a	n/a	n/a	n/a	n/a	n/a
1113.1702	1	10	975.8	975.8	1	0	1	0	0.6	0.80051	0.2	0.20076	18
1114.1534	1	20	n/a	n/a	1	n/a	n/a	n/a	n/a	n/a	n/a	n/a	n/a
1116.1404	1	80	n/a	n/a	1	n/a	n/a	n/a	n/a	n/a	n/a	n/a	n/a
1116.2404	1	80	n/a	n/a	1	n/a	n/a	n/a	n/a	n/a	n/a	n/a	n/a
1116.4534	1	30	n/a	n/a	1	n/a	n/a	n/a	n/a	n/a	n/a	n/a	n/a
1118.4698	1	40	n/a	n/a	1	n/a	n/a	n/a	n/a	n/a	n/a	n/a	n/a
1120.4864	1	10	1387.4	1387.4	1	0	1	0	0.8	0.43956	0.5	0.25824	19
1121.8864	1	20	n/a	n/a	1	n/a	n/a	n/a	n/a	n/a	n/a	n/a	n/a
1123.6594	1	80	n/a	n/a	1	n/a	n/a	n/a	n/a	n/a	n/a	n/a	n/a
1123.7594	1	80	n/a	n/a	1	n/a	n/a	n/a	n/a	n/a	n/a	n/a	n/a
1123.9696	1	30	n/a	n/a	1	n/a	n/a	n/a	n/a	n/a	n/a	n/a	n/a
1125.9862	1	40	n/a	n/a	1	n/a	n/a	n/a	n/a	n/a	n/a	n/a	n/a
1128.0026	1	10	1359.1	1359.1	1	0	1	0	0.5	0.52309	0.4	0.32309	20
1129.3692	1	20	n/a	n/a	1	n/a	n/a	n/a	n/a	n/a	n/a	n/a	n/a
1130.4982	1	80	n/a	n/a	1	n/a	n/a	n/a	n/a	n/a	n/a	n/a	n/a
1130.5982	1	80	n/a	n/a	1	n/a	n/a	n/a	n/a	n/a	n/a	n/a	n/a
1130.8024	1	30	n/a	n/a	1	n/a	n/a	n/a	n/a	n/a	n/a	n/a	n/a
1132.819	1	40	n/a	n/a	1	n/a	n/a	n/a	n/a	n/a	n/a	n/a	n/a
1143.8518	1	10	1637.7	1637.7	1	0	1	0	0	0	0.5	0.5	21
1145.5016	1	20	n/a	n/a	1	n/a	n/a	n/a	n/a	n/a	n/a	n/a	n/a
1147.1006	1	80	n/a	n/a	1	n/a	n/a	n/a	n/a	n/a	n/a	n/a	n/a
1147.2006	1	80	n/a	n/a	1	n/a	n/a	n/a	n/a	n/a	n/a	n/a	n/a
1147.4182	1	31	n/a	n/a	1	n/a	n/a	n/a	n/a	n/a	n/a	n/a	n/a
1149.4348	1	10	1494.5	1494.5	1	0	1	0	0	0	0.5	0.5	22
1150.9346	1	20	n/a	n/a	1	n/a	n/a	n/a	n/a	n/a	n/a	n/a	n/a
1152.1276	1	80	n/a	n/a	1	n/a	n/a	n/a	n/a	n/a	n/a	n/a	n/a
1152.2276	1	80	n/a	n/a	1	n/a	n/a	n/a	n/a	n/a	n/a	n/a	n/a
1152.4346	1	31	n/a	n/a	1	n/a	n/a	n/a	n/a	n/a	n/a	n/a	n/a
1154.451	1	10	654	654	1	0	1	0	0	0	0.3	0.3	23
1155.1176	1	20	n/a	n/a	1	n/a	n/a	n/a	n/a	n/a	n/a	n/a	n/a
1156.2008	1	80	n/a	n/a	1	n/a	n/a	n/a	n/a	n/a	n/a	n/a	n/a
1156.3008	1	80	n/a	n/a	1	n/a	n/a	n/a	n/a	n/a	n/a	n/a	n/a
1156.5176	1	31	n/a	n/a	1	n/a	n/a	n/a	n/a	n/a	n/a	n/a	n/a
1158.5342	1	10	746.8	746.8	1	0	1	0	0	0	0.8	0.8	24
1159.2842	1	20	n/a	n/a	1	n/a	n/a	n/a	n/a	n/a	n/a	n/a	n/a
1160.4112	1	80	n/a	n/a	1	n/a	n/a	n/a	n/a	n/a	n/a	n/a	n/a
1160.5112	1	80	n/a	n/a	1	n/a	n/a	n/a	n/a	n/a	n/a	n/a	n/a
1160.7174	1	31	n/a	n/a	1	n/a	n/a	n/a	n/a	n/a	n/a	n/a	n/a
1162.734	1	10	883	883	1	0	1	0	0	0	0.9	0.9	25
1163.6338	1	20	n/a	n/a	1	n/a	n/a	n/a	n/a	n/a	n/a	n/a	n/a
1165.1468	1	80	n/a	n/a	1	n/a	n/a	n/a	n/a	n/a	n/a	n/a	n/a
1165.2468	1	80	n/a	n/a	1	n/a	n/a	n/a	n/a	n/a	n/a	n/a	n/a
1165.4504	1	31	n/a	n/a	1	n/a	n/a	n/a	n/a	n/a	n/a	n/a	n/a
1167.467	1	10	1941.8	1941.8	1	0	1	0	0	0	0.8	0.8	26
1169.4168	1	20	n/a	n/a	1	n/a	n/a	n/a	n/a	n/a	n/a	n/a	n/a
1170.6118	1	80	n/a	n/a	1	n/a	n/a	n/a	n/a	n/a	n/a	n/a	n/a
1170.7118	1	80	n/a	n/a	1	n/a	n/a	n/a	n/a	n/a	n/a	n/a	n/a
1170.9168	1	30	n/a	n/a	1	n/a	n/a	n/a	n/a	n/a	n/a	n/a	n/a
1172.9334	1	10	603.4	603.4	1	0	1	0	0	0	0.2	0.2	27
1173.55	1	20	n/a	n/a	1	n/a	n/a	n/a	n/a	n/a	n/a	n/a	n/a
1174.927	1	80	n/a	n/a	1	n/a	n/a	n/a	n/a	n/a	n/a	n/a	n/a
1175.027	1	80	n/a	n/a	1	n/a	n/a	n/a	n/a	n/a	n/a	n/a	n/a
1175.2332	1	30	n/a	n/a	1	n/a	n/a	n/a	n/a	n/a	n/a	n/a	n/a
1177.2498	1	10	702.9	702.9	1	0	1	0	0	0	0.3	0.3	28
1177.9664	1	20	n/a	n/a	1	n/a	n/a	n/a	n/a	n/a	n/a	n/a	n/a
1179.3514	1	80	n/a	n/a	1	n/a	n/a	n/a	n/a	n/a	n/a	n/a	n/a
1179.4514	1	80	n/a	n/a	1	n/a	n/a	n/a	n/a	n/a	n/a	n/a	n/a
1179.6662	1	30	n/a	n/a	1	n/a	n/a	n/a	n/a	n/a	n/a	n/a	n/a
1181.6828	1	10	621.8	621.8	1	0	1	0	0	0	0.8	0.8	29
1182.316	1	20	n/a	n/a	1	n/a	n/a	n/a	n/a	n/a	n/a	n/a	n/a
1183.686	1	80	n/a	n/a	1	n/a	n/a	n/a	n/a	n/a	n/a	n/a	n/a
1183.786	1	80	n/a	n/a	1	n/a	n/a	n/a	n/a	n/a	n/a	n/a	n/a
1183.9992	1	31	n/a	n/a	1	n/a	n/a	n/a	n/a	n/a	n/a	n/a	n/a
1186.0158	1	10	1296.5	1296.5	1	0	1	0	0	0	0.8	0.8	30
1187.3158	1	20	n/a	n/a	1	n/a	n/a	n/a	n/a	n/a	n/a	n/a	n/a
1188.8328	1	80	n/a	n/a	1	n/a	n/a	n/a	n/a	n/a	n/a	n/a	n/a
1188.9328	1	80	n/a	n/a	1	n/a	n/a	n/a	n/a	n/a	n/a	n/a	n/a
1189.149	1	31	n/a	n/a	1	n/a	n/a	n/a	n/a	n/a	n/a	n/a	n/a
1200.1816	1	10	1594.4	1594.4	1	0	1	0	0.4	0.032374	0.8	0.68825	31
1201.7816	1	20	n/a	n/a	1	n/a	n/a	n/a	n/a	n/a	n/a	n/a	n/a
1202.9556	1	80	n/a	n/a	1	n/a	n/a	n/a	n/a	n/a	n/a	n/a	n/a
1203.0556	1	80	n/a	n/a	1	n/a	n/a	n/a	n/a	n/a	n/a	n/a	n/a
1203.2648	1	30	n/a	n/a	1	n/a	n/a	n/a	n/a	n/a	n/a	n/a	n/a
1205.2814	1	40	n/a	n/a	1	n/a	n/a	n/a	n/a	n/a	n/a	n/a	n/a
1207.298	1	10	1101.9	1101.9	1	0	1	0	0.8	0.15717	0.7	0.12868	32
1208.4146	1	20	n/a	n/a	1	n/a	n/a	n/a	n/a	n/a	n/a	n/a	n/a
1209.8366	1	80	n/a	n/a	1	n/a	n/a	n/a	n/a	n/a	n/a	n/a	n/a
1209.9366	1	80	n/a	n/a	1	n/a	n/a	n/a	n/a	n/a	n/a	n/a	n/a
1210.1478	1	30	n/a	n/a	1	n/a	n/a	n/a	n/a	n/a	n/a	n/a	n/a
1212.1642	1	40	n/a	n/a	1	n/a	n/a	n/a	n/a	n/a	n/a	n/a	n/a
1214.1808	1	10	2298.8	2298.8	1	0	1	0	0.5	0.20979	0.7	0.60979	33
1216.4974	1	20	n/a	n/a	1	n/a	n/a	n/a	n/a	n/a	n/a	n/a	n/a
1218.2014	1	80	n/a	n/a	1	n/a	n/a	n/a	n/a	n/a	n/a	n/a	n/a
1218.3014	1	80	n/a	n/a	1	n/a	n/a	n/a	n/a	n/a	n/a	n/a	n/a
1218.5138	1	31	n/a	n/a	1	n/a	n/a	n/a	n/a	n/a	n/a	n/a	n/a
1220.5304	1	40	n/a	n/a	1	n/a	n/a	n/a	n/a	n/a	n/a	n/a	n/a
1222.547	1	10	3724.5	3724.5	1	0	1	0	0.6	0.85327	0.2	0.27991	34
1226.2802	1	20	n/a	n/a	1	n/a	n/a	n/a	n/a	n/a	n/a	n/a	n/a
1227.8832	1	80	n/a	n/a	1	n/a	n/a	n/a	n/a	n/a	n/a	n/a	n/a
1227.9832	1	80	n/a	n/a	1	n/a	n/a	n/a	n/a	n/a	n/a	n/a	n/a
1228.1966	1	31	n/a	n/a	1	n/a	n/a	n/a	n/a	n/a	n/a	n/a	n/a
1230.2132	1	40	n/a	n/a	1	n/a	n/a	n/a	n/a	n/a	n/a	n/a	n/a
1232.2298	1	10	793.5	793.5	1	0	1	0	0.4	0.011838	0.9	0.84123	35
1233.0296	1	20	n/a	n/a	1	n/a	n/a	n/a	n/a	n/a	n/a	n/a	n/a
1234.7918	1	80	n/a	n/a	1	n/a	n/a	n/a	n/a	n/a	n/a	n/a	n/a
1234.8918	1	80	n/a	n/a	1	n/a	n/a	n/a	n/a	n/a	n/a	n/a	n/a
1235.0962	1	31	n/a	n/a	1	n/a	n/a	n/a	n/a	n/a	n/a	n/a	n/a
1237.1128	1	40	n/a	n/a	1	n/a	n/a	n/a	n/a	n/a	n/a	n/a	n/a
1239.1294	1	10	1253.9	1253.9	1	0	1	0	0.8	0.4086	0.2	0.0625	36
1240.396	1	20	n/a	n/a	1	n/a	n/a	n/a	n/a	n/a	n/a	n/a	n/a
1241.828	1	80	n/a	n/a	1	n/a	n/a	n/a	n/a	n/a	n/a	n/a	n/a
1241.928	1	80	n/a	n/a	1	n/a	n/a	n/a	n/a	n/a	n/a	n/a	n/a
1242.1458	1	31	n/a	n/a	1	n/a	n/a	n/a	n/a	n/a	n/a	n/a	n/a
1244.1624	1	40	n/a	n/a	1	n/a	n/a	n/a	n/a	n/a	n/a	n/a	n/a
1246.179	1	10	3724	3724	1	0	1	0	0.6	0.74581	0.3	0.36871	37
1249.912	1	20	n/a	n/a	1	n/a	n/a	n/a	n/a	n/a	n/a	n/a	n/a
1251.24	1	80	n/a	n/a	1	n/a	n/a	n/a	n/a	n/a	n/a	n/a	n/a
1251.34	1	80	n/a	n/a	1	n/a	n/a	n/a	n/a	n/a	n/a	n/a	n/a
1251.5452	1	31	n/a	n/a	1	n/a	n/a	n/a	n/a	n/a	n/a	n/a	n/a
1253.5618	1	40	n/a	n/a	1	n/a	n/a	n/a	n/a	n/a	n/a	n/a	n/a
1255.5784	1	10	692.5	692.5	1	0	1	0	0.7	0.89459	0.1	0.087373	38
1256.2784	1	20	n/a	n/a	1	n/a	n/a	n/a	n/a	n/a	n/a	n/a	n/a
1258.0794	1	80	n/a	n/a	1	n/a	n/a	n/a	n/a	n/a	n/a	n/a	n/a
1258.1794	1	80	n/a	n/a	1	n/a	n/a	n/a	n/a	n/a	n/a	n/a	n/a
1258.3948	1	31	n/a	n/a	1	n/a	n/a	n/a	n/a	n/a	n/a	n/a	n/a
1260.4114	1	40	n/a	n/a	1	n/a	n/a	n/a	n/a	n/a	n/a	n/a	n/a
1262.428	1	10	2242.7	2242.7	1	0	1	0	0.5	0.11466	0.7	0.51466	39
1264.6778	1	20	n/a	n/a	1	n/a	n/a	n/a	n/a	n/a	n/a	n/a	n/a
1266.1368	1	80	n/a	n/a	1	n/a	n/a	n/a	n/a	n/a	n/a	n/a	n/a
1266.2368	1	80	n/a	n/a	1	n/a	n/a	n/a	n/a	n/a	n/a	n/a	n/a
1266.4444	1	30	n/a	n/a	1	n/a	n/a	n/a	n/a	n/a	n/a	n/a	n/a
1268.461	1	40	n/a	n/a	1	n/a	n/a	n/a	n/a	n/a	n/a	n/a	n/a
1270.4774	1	10	1569	1569	1	0	1	0	0.8	0.95018	0.1	0.30073	40
1272.0606	1	20	n/a	n/a	1	n/a	n/a	n/a	n/a	n/a	n/a	n/a	n/a
1273.4038	1	80	n/a	n/a	1	n/a	n/a	n/a	n/a	n/a	n/a	n/a	n/a
1273.5038	1	80	n/a	n/a	1	n/a	n/a	n/a	n/a	n/a	n/a	n/a	n/a
1273.7106	1	30	n/a	n/a	1	n/a	n/a	n/a	n/a	n/a	n/a	n/a	n/a
1275.7272	1	40	n/a	n/a	1	n/a	n/a	n/a	n/a	n/a	n/a	n/a	n/a
1356.0224	1	10	806.1	806.1	1	1	0	0	0	0	0.9	0.9	1
1356.839	1	20	n/a	n/a	1	n/a	n/a	n/a	n/a	n/a	n/a	n/a	n/a
1358.312	1	80	n/a	n/a	1	n/a	n/a	n/a	n/a	n/a	n/a	n/a	n/a
1358.412	1	80	n/a	n/a	1	n/a	n/a	n/a	n/a	n/a	n/a	n/a	n/a
1358.6222	1	31	n/a	n/a	1	n/a	n/a	n/a	n/a	n/a	n/a	n/a	n/a
1360.6388	1	10	941.6	941.6	1	1	0	0	0	0	0.7	0.7	2
1361.5886	1	20	n/a	n/a	1	n/a	n/a	n/a	n/a	n/a	n/a	n/a	n/a
1363.2016	1	80	n/a	n/a	1	n/a	n/a	n/a	n/a	n/a	n/a	n/a	n/a
1363.3016	1	80	n/a	n/a	1	n/a	n/a	n/a	n/a	n/a	n/a	n/a	n/a
1363.5052	1	31	n/a	n/a	1	n/a	n/a	n/a	n/a	n/a	n/a	n/a	n/a
1365.5218	1	10	1370.5	1370.5	1	1	0	0	0	0	0.7	0.7	3
1366.905	1	20	n/a	n/a	1	n/a	n/a	n/a	n/a	n/a	n/a	n/a	n/a
1367.909	1	80	n/a	n/a	1	n/a	n/a	n/a	n/a	n/a	n/a	n/a	n/a
1368.009	1	80	n/a	n/a	1	n/a	n/a	n/a	n/a	n/a	n/a	n/a	n/a
1368.2216	1	31	n/a	n/a	1	n/a	n/a	n/a	n/a	n/a	n/a	n/a	n/a
1370.2382	1	10	2301.9	2301.9	1	1	0	0	0	0	0.5	0.5	4
1372.5546	1	20	n/a	n/a	1	n/a	n/a	n/a	n/a	n/a	n/a	n/a	n/a
1374.3406	1	80	n/a	n/a	1	n/a	n/a	n/a	n/a	n/a	n/a	n/a	n/a
1374.4406	1	80	n/a	n/a	1	n/a	n/a	n/a	n/a	n/a	n/a	n/a	n/a
1374.6546	1	30	n/a	n/a	1	n/a	n/a	n/a	n/a	n/a	n/a	n/a	n/a
1376.671	1	10	1068.8	1068.8	1	1	0	0	0	0	0.7	0.7	5
1377.7544	1	20	n/a	n/a	1	n/a	n/a	n/a	n/a	n/a	n/a	n/a	n/a
1379.3194	1	80	n/a	n/a	1	n/a	n/a	n/a	n/a	n/a	n/a	n/a	n/a
1379.4194	1	80	n/a	n/a	1	n/a	n/a	n/a	n/a	n/a	n/a	n/a	n/a
1379.621	1	31	n/a	n/a	1	n/a	n/a	n/a	n/a	n/a	n/a	n/a	n/a
1381.6374	1	10	822.4	822.4	1	1	0	0	0	0	0.7	0.7	6
1382.4708	1	20	n/a	n/a	1	n/a	n/a	n/a	n/a	n/a	n/a	n/a	n/a
1383.8028	1	80	n/a	n/a	1	n/a	n/a	n/a	n/a	n/a	n/a	n/a	n/a
1383.9028	1	80	n/a	n/a	1	n/a	n/a	n/a	n/a	n/a	n/a	n/a	n/a
1384.1206	1	31	n/a	n/a	1	n/a	n/a	n/a	n/a	n/a	n/a	n/a	n/a
1386.1372	1	10	818.6	818.6	1	1	0	0	0	0	0.1	0.1	7
1386.9704	1	20	n/a	n/a	1	n/a	n/a	n/a	n/a	n/a	n/a	n/a	n/a
1388.4934	1	80	n/a	n/a	1	n/a	n/a	n/a	n/a	n/a	n/a	n/a	n/a
1388.5934	1	80	n/a	n/a	1	n/a	n/a	n/a	n/a	n/a	n/a	n/a	n/a
1388.8038	1	31	n/a	n/a	1	n/a	n/a	n/a	n/a	n/a	n/a	n/a	n/a
1390.8202	1	10	647.4	647.4	1	1	0	0	0	0	0.8	0.8	8
1391.4702	1	20	n/a	n/a	1	n/a	n/a	n/a	n/a	n/a	n/a	n/a	n/a
1392.9642	1	80	n/a	n/a	1	n/a	n/a	n/a	n/a	n/a	n/a	n/a	n/a
1393.0642	1	80	n/a	n/a	1	n/a	n/a	n/a	n/a	n/a	n/a	n/a	n/a
1393.2702	1	31	n/a	n/a	1	n/a	n/a	n/a	n/a	n/a	n/a	n/a	n/a
1395.2866	1	10	820.9	820.9	1	1	0	0	0	0	0.8	0.8	9
1396.12	1	20	n/a	n/a	1	n/a	n/a	n/a	n/a	n/a	n/a	n/a	n/a
1397.771	1	80	n/a	n/a	1	n/a	n/a	n/a	n/a	n/a	n/a	n/a	n/a
1397.871	1	80	n/a	n/a	1	n/a	n/a	n/a	n/a	n/a	n/a	n/a	n/a
1398.0864	1	30	n/a	n/a	1	n/a	n/a	n/a	n/a	n/a	n/a	n/a	n/a
1400.103	1	10	980.4	980.4	1	1	0	0	0	0	0.9	0.9	10
1401.0862	1	20	n/a	n/a	1	n/a	n/a	n/a	n/a	n/a	n/a	n/a	n/a
1402.9044	1	80	n/a	n/a	1	n/a	n/a	n/a	n/a	n/a	n/a	n/a	n/a
1403.0044	1	80	n/a	n/a	1	n/a	n/a	n/a	n/a	n/a	n/a	n/a	n/a
1403.2196	1	31	n/a	n/a	1	n/a	n/a	n/a	n/a	n/a	n/a	n/a	n/a
1414.2522	1	10	1182.9	1182.9	1	1	0	0	0.7	0.81536	0.2	0.23583	11
1415.4522	1	20	n/a	n/a	1	n/a	n/a	n/a	n/a	n/a	n/a	n/a	n/a
1417.2172	1	80	n/a	n/a	1	n/a	n/a	n/a	n/a	n/a	n/a	n/a	n/a
1417.3172	1	80	n/a	n/a	1	n/a	n/a	n/a	n/a	n/a	n/a	n/a	n/a
1417.5186	1	30	n/a	n/a	1	n/a	n/a	n/a	n/a	n/a	n/a	n/a	n/a
1419.5352	1	40	n/a	n/a	1	n/a	n/a	n/a	n/a	n/a	n/a	n/a	n/a
1421.5518	1	10	2091.1	2091.1	1	1	0	0	0.8	0.27434	0.7	0.59738	12
1423.6516	1	20	n/a	n/a	1	n/a	n/a	n/a	n/a	n/a	n/a	n/a	n/a
1425.3256	1	80	n/a	n/a	1	n/a	n/a	n/a	n/a	n/a	n/a	n/a	n/a
1425.4256	1	80	n/a	n/a	1	n/a	n/a	n/a	n/a	n/a	n/a	n/a	n/a
1425.6348	1	31	n/a	n/a	1	n/a	n/a	n/a	n/a	n/a	n/a	n/a	n/a
1427.6514	1	40	n/a	n/a	1	n/a	n/a	n/a	n/a	n/a	n/a	n/a	n/a
1429.668	1	10	726.8	726.8	1	1	0	0	0.8	0.40586	0.7	0.9375	13
1430.4012	1	20	n/a	n/a	1	n/a	n/a	n/a	n/a	n/a	n/a	n/a	n/a
1432.1902	1	80	n/a	n/a	1	n/a	n/a	n/a	n/a	n/a	n/a	n/a	n/a
1432.2902	1	80	n/a	n/a	1	n/a	n/a	n/a	n/a	n/a	n/a	n/a	n/a
1432.501	1	31	n/a	n/a	1	n/a	n/a	n/a	n/a	n/a	n/a	n/a	n/a
1434.5176	1	40	n/a	n/a	1	n/a	n/a	n/a	n/a	n/a	n/a	n/a	n/a
1436.5342	1	10	852.4	852.4	1	1	0	0	0.5	0.58941	0.4	0.38941	14
1437.4008	1	20	n/a	n/a	1	n/a	n/a	n/a	n/a	n/a	n/a	n/a	n/a
1438.7148	1	80	n/a	n/a	1	n/a	n/a	n/a	n/a	n/a	n/a	n/a	n/a
1438.8148	1	80	n/a	n/a	1	n/a	n/a	n/a	n/a	n/a	n/a	n/a	n/a
1439.0174	1	31	n/a	n/a	1	n/a	n/a	n/a	n/a	n/a	n/a	n/a	n/a
1441.034	1	40	n/a	n/a	1	n/a	n/a	n/a	n/a	n/a	n/a	n/a	n/a
1443.0504	1	10	1792	1792	1	1	0	0	0.6	0.25952	0.7	0.63928	15
1444.8504	1	20	n/a	n/a	1	n/a	n/a	n/a	n/a	n/a	n/a	n/a	n/a
1446.5364	1	80	n/a	n/a	1	n/a	n/a	n/a	n/a	n/a	n/a	n/a	n/a
1446.6364	1	80	n/a	n/a	1	n/a	n/a	n/a	n/a	n/a	n/a	n/a	n/a
1446.8502	1	31	n/a	n/a	1	n/a	n/a	n/a	n/a	n/a	n/a	n/a	n/a
1448.8668	1	40	n/a	n/a	1	n/a	n/a	n/a	n/a	n/a	n/a	n/a	n/a
1450.8834	1	10	790.9	790.9	1	1	0	0	0.4	0.17094	0.5	0.28063	16
1451.6832	1	20	n/a	n/a	1	n/a	n/a	n/a	n/a	n/a	n/a	n/a	n/a
1453.2812	1	80	n/a	n/a	1	n/a	n/a	n/a	n/a	n/a	n/a	n/a	n/a
1453.3812	1	80	n/a	n/a	1	n/a	n/a	n/a	n/a	n/a	n/a	n/a	n/a
1453.5832	1	30	n/a	n/a	1	n/a	n/a	n/a	n/a	n/a	n/a	n/a	n/a
1455.5998	1	40	n/a	n/a	1	n/a	n/a	n/a	n/a	n/a	n/a	n/a	n/a
1457.6162	1	10	921.9	921.9	1	1	0	0	0.8	0.91743	0.1	0.16973	17
1458.5496	1	20	n/a	n/a	1	n/a	n/a	n/a	n/a	n/a	n/a	n/a	n/a
1459.8886	1	80	n/a	n/a	1	n/a	n/a	n/a	n/a	n/a	n/a	n/a	n/a
1459.9886	1	80	n/a	n/a	1	n/a	n/a	n/a	n/a	n/a	n/a	n/a	n/a
1460.1994	1	31	n/a	n/a	1	n/a	n/a	n/a	n/a	n/a	n/a	n/a	n/a
1462.216	1	40	n/a	n/a	1	n/a	n/a	n/a	n/a	n/a	n/a	n/a	n/a
1464.2326	1	10	1281.4	1281.4	1	1	0	0	0.6	0.42022	0.5	0.38033	18
1465.5324	1	20	n/a	n/a	1	n/a	n/a	n/a	n/a	n/a	n/a	n/a	n/a
1467.1204	1	80	n/a	n/a	1	n/a	n/a	n/a	n/a	n/a	n/a	n/a	n/a
1467.2204	1	80	n/a	n/a	1	n/a	n/a	n/a	n/a	n/a	n/a	n/a	n/a
1467.4324	1	30	n/a	n/a	1	n/a	n/a	n/a	n/a	n/a	n/a	n/a	n/a
1469.4488	1	40	n/a	n/a	1	n/a	n/a	n/a	n/a	n/a	n/a	n/a	n/a
1471.4654	1	10	624.3	624.3	1	1	0	0	0.5	0.55353	0.1	0.025	19
1472.0988	1	20	n/a	n/a	1	n/a	n/a	n/a	n/a	n/a	n/a	n/a	n/a
1473.9558	1	80	n/a	n/a	1	n/a	n/a	n/a	n/a	n/a	n/a	n/a	n/a
1474.0558	1	80	n/a	n/a	1	n/a	n/a	n/a	n/a	n/a	n/a	n/a	n/a
1474.2652	1	31	n/a	n/a	1	n/a	n/a	n/a	n/a	n/a	n/a	n/a	n/a
1476.2818	1	40	n/a	n/a	1	n/a	n/a	n/a	n/a	n/a	n/a	n/a	n/a
1478.2984	1	10	1199.3	1199.3	1	1	0	0	0.6	0.20677	0.7	0.56016	20
1479.515	1	20	n/a	n/a	1	n/a	n/a	n/a	n/a	n/a	n/a	n/a	n/a
1481.293	1	80	n/a	n/a	1	n/a	n/a	n/a	n/a	n/a	n/a	n/a	n/a
1481.393	1	80	n/a	n/a	1	n/a	n/a	n/a	n/a	n/a	n/a	n/a	n/a
1481.5982	1	31	n/a	n/a	1	n/a	n/a	n/a	n/a	n/a	n/a	n/a	n/a
1483.6146	1	40	n/a	n/a	1	n/a	n/a	n/a	n/a	n/a	n/a	n/a	n/a
1494.6474	1	10	1313.9	1313.9	1	1	0	0	0	0	0.4	0.4	21
1495.964	1	20	n/a	n/a	1	n/a	n/a	n/a	n/a	n/a	n/a	n/a	n/a
1497.322	1	80	n/a	n/a	1	n/a	n/a	n/a	n/a	n/a	n/a	n/a	n/a
1497.422	1	80	n/a	n/a	1	n/a	n/a	n/a	n/a	n/a	n/a	n/a	n/a
1497.6306	1	31	n/a	n/a	1	n/a	n/a	n/a	n/a	n/a	n/a	n/a	n/a
1499.647	1	10	570.1	570.1	1	1	0	0	0	0	0.8	0.8	22
1500.2304	1	20	n/a	n/a	1	n/a	n/a	n/a	n/a	n/a	n/a	n/a	n/a
1502.0434	1	80	n/a	n/a	1	n/a	n/a	n/a	n/a	n/a	n/a	n/a	n/a
1502.1434	1	80	n/a	n/a	1	n/a	n/a	n/a	n/a	n/a	n/a	n/a	n/a
1502.347	1	30	n/a	n/a	1	n/a	n/a	n/a	n/a	n/a	n/a	n/a	n/a
1504.3634	1	10	637.5	637.5	1	1	0	0	0	0	0.9	0.9	23
1505.0134	1	20	n/a	n/a	1	n/a	n/a	n/a	n/a	n/a	n/a	n/a	n/a
1506.3214	1	80	n/a	n/a	1	n/a	n/a	n/a	n/a	n/a	n/a	n/a	n/a
1506.4214	1	80	n/a	n/a	1	n/a	n/a	n/a	n/a	n/a	n/a	n/a	n/a
1506.63	1	31	n/a	n/a	1	n/a	n/a	n/a	n/a	n/a	n/a	n/a	n/a
1508.6466	1	10	1282.4	1282.4	1	1	0	0	0	0	0.4	0.4	24
1509.9464	1	20	n/a	n/a	1	n/a	n/a	n/a	n/a	n/a	n/a	n/a	n/a
1511.4654	1	80	n/a	n/a	1	n/a	n/a	n/a	n/a	n/a	n/a	n/a	n/a
1511.5654	1	80	n/a	n/a	1	n/a	n/a	n/a	n/a	n/a	n/a	n/a	n/a
1511.7796	1	31	n/a	n/a	1	n/a	n/a	n/a	n/a	n/a	n/a	n/a	n/a
1513.7962	1	10	596.6	596.6	1	1	0	0	0	0	0.2	0.2	25
1514.3962	1	20	n/a	n/a	1	n/a	n/a	n/a	n/a	n/a	n/a	n/a	n/a
1515.8552	1	80	n/a	n/a	1	n/a	n/a	n/a	n/a	n/a	n/a	n/a	n/a
1515.9552	1	80	n/a	n/a	1	n/a	n/a	n/a	n/a	n/a	n/a	n/a	n/a
1516.1628	1	31	n/a	n/a	1	n/a	n/a	n/a	n/a	n/a	n/a	n/a	n/a
1518.1792	1	10	693.4	693.4	1	1	0	0	0	0	0.7	0.7	26
1518.8792	1	20	n/a	n/a	1	n/a	n/a	n/a	n/a	n/a	n/a	n/a	n/a
1520.8032	1	80	n/a	n/a	1	n/a	n/a	n/a	n/a	n/a	n/a	n/a	n/a
1520.9032	1	80	n/a	n/a	1	n/a	n/a	n/a	n/a	n/a	n/a	n/a	n/a
1521.1124	1	31	n/a	n/a	1	n/a	n/a	n/a	n/a	n/a	n/a	n/a	n/a
1523.129	1	10	687.6	687.6	1	1	0	0	0	0	0.8	0.8	27
1523.829	1	20	n/a	n/a	1	n/a	n/a	n/a	n/a	n/a	n/a	n/a	n/a
1525.393	1	80	n/a	n/a	1	n/a	n/a	n/a	n/a	n/a	n/a	n/a	n/a
1525.493	1	80	n/a	n/a	1	n/a	n/a	n/a	n/a	n/a	n/a	n/a	n/a
1525.6956	1	30	n/a	n/a	1	n/a	n/a	n/a	n/a	n/a	n/a	n/a	n/a
1527.712	1	10	616.4	616.4	1	1	0	0	0	0	0.1	0.1	28
1528.3454	1	20	n/a	n/a	1	n/a	n/a	n/a	n/a	n/a	n/a	n/a	n/a
1530.2474	1	80	n/a	n/a	1	n/a	n/a	n/a	n/a	n/a	n/a	n/a	n/a
1530.3474	1	80	n/a	n/a	1	n/a	n/a	n/a	n/a	n/a	n/a	n/a	n/a
1530.5618	1	31	n/a	n/a	1	n/a	n/a	n/a	n/a	n/a	n/a	n/a	n/a
1532.5784	1	10	773.9	773.9	1	1	0	0	0	0	0.7	0.7	29
1533.3618	1	20	n/a	n/a	1	n/a	n/a	n/a	n/a	n/a	n/a	n/a	n/a
1535.0228	1	80	n/a	n/a	1	n/a	n/a	n/a	n/a	n/a	n/a	n/a	n/a
1535.1228	1	80	n/a	n/a	1	n/a	n/a	n/a	n/a	n/a	n/a	n/a	n/a
1535.3282	1	30	n/a	n/a	1	n/a	n/a	n/a	n/a	n/a	n/a	n/a	n/a
1537.3448	1	10	1351.4	1351.4	1	1	0	0	0	0	0.5	0.5	30
1538.7114	1	20	n/a	n/a	1	n/a	n/a	n/a	n/a	n/a	n/a	n/a	n/a
1540.3054	1	80	n/a	n/a	1	n/a	n/a	n/a	n/a	n/a	n/a	n/a	n/a
1540.4054	1	80	n/a	n/a	1	n/a	n/a	n/a	n/a	n/a	n/a	n/a	n/a
1540.6112	1	30	n/a	n/a	1	n/a	n/a	n/a	n/a	n/a	n/a	n/a	n/a
1551.644	1	10	1724	1724	1	1	0	0	0.8	0.81894	0.4	0.9375	31
1553.3772	1	20	n/a	n/a	1	n/a	n/a	n/a	n/a	n/a	n/a	n/a	n/a
1554.9282	1	80	n/a	n/a	1	n/a	n/a	n/a	n/a	n/a	n/a	n/a	n/a
1555.0282	1	80	n/a	n/a	1	n/a	n/a	n/a	n/a	n/a	n/a	n/a	n/a
1555.2438	1	30	n/a	n/a	1	n/a	n/a	n/a	n/a	n/a	n/a	n/a	n/a
1557.2602	1	40	n/a	n/a	1	n/a	n/a	n/a	n/a	n/a	n/a	n/a	n/a
1559.2768	1	10	1130.9	1130.9	1	1	0	0	0.6	0.92532	0.2	0.38799	32
1560.4102	1	20	n/a	n/a	1	n/a	n/a	n/a	n/a	n/a	n/a	n/a	n/a
1562.3312	1	80	n/a	n/a	1	n/a	n/a	n/a	n/a	n/a	n/a	n/a	n/a
1562.4312	1	80	n/a	n/a	1	n/a	n/a	n/a	n/a	n/a	n/a	n/a	n/a
1562.6432	1	31	n/a	n/a	1	n/a	n/a	n/a	n/a	n/a	n/a	n/a	n/a
1564.6598	1	40	n/a	n/a	1	n/a	n/a	n/a	n/a	n/a	n/a	n/a	n/a
1566.6764	1	10	787.2	787.2	1	1	0	0	0.7	0.92268	0.1	0.15293	33
1567.4764	1	20	n/a	n/a	1	n/a	n/a	n/a	n/a	n/a	n/a	n/a	n/a
1568.6344	1	80	n/a	n/a	1	n/a	n/a	n/a	n/a	n/a	n/a	n/a	n/a
1568.7344	1	80	n/a	n/a	1	n/a	n/a	n/a	n/a	n/a	n/a	n/a	n/a
1568.943	1	31	n/a	n/a	1	n/a	n/a	n/a	n/a	n/a	n/a	n/a	n/a
1570.9594	1	40	n/a	n/a	1	n/a	n/a	n/a	n/a	n/a	n/a	n/a	n/a
1572.976	1	10	567.4	567.4	1	1	0	0	0.7	0.16372	0.1	0.041667	34
1573.5594	1	20	n/a	n/a	1	n/a	n/a	n/a	n/a	n/a	n/a	n/a	n/a
1575.0434	1	80	n/a	n/a	1	n/a	n/a	n/a	n/a	n/a	n/a	n/a	n/a
1575.1434	1	80	n/a	n/a	1	n/a	n/a	n/a	n/a	n/a	n/a	n/a	n/a
1575.3592	1	31	n/a	n/a	1	n/a	n/a	n/a	n/a	n/a	n/a	n/a	n/a
1577.3758	1	40	n/a	n/a	1	n/a	n/a	n/a	n/a	n/a	n/a	n/a	n/a
1579.3924	1	10	887	887	1	1	0	0	0.7	0.1511	0.8	0.6859	35
1580.2922	1	20	n/a	n/a	1	n/a	n/a	n/a	n/a	n/a	n/a	n/a	n/a
1581.4202	1	80	n/a	n/a	1	n/a	n/a	n/a	n/a	n/a	n/a	n/a	n/a
1581.5202	1	80	n/a	n/a	1	n/a	n/a	n/a	n/a	n/a	n/a	n/a	n/a
1581.7254	1	30	n/a	n/a	1	n/a	n/a	n/a	n/a	n/a	n/a	n/a	n/a
1583.742	1	40	n/a	n/a	1	n/a	n/a	n/a	n/a	n/a	n/a	n/a	n/a
1585.7586	1	10	2552.5	2552.5	1	1	0	0	0.5	0.51484	0.5	0.51484	36
1588.325	1	20	n/a	n/a	1	n/a	n/a	n/a	n/a	n/a	n/a	n/a	n/a
1589.5252	1	80	n/a	n/a	1	n/a	n/a	n/a	n/a	n/a	n/a	n/a	n/a
1589.6252	1	80	n/a	n/a	1	n/a	n/a	n/a	n/a	n/a	n/a	n/a	n/a
1589.8416	1	31	n/a	n/a	1	n/a	n/a	n/a	n/a	n/a	n/a	n/a	n/a
1591.8582	1	40	n/a	n/a	1	n/a	n/a	n/a	n/a	n/a	n/a	n/a	n/a
1593.8748	1	10	676.2	676.2	1	1	0	0	0.4	0.55715	0.2	0.038102	37
1594.558	1	20	n/a	n/a	1	n/a	n/a	n/a	n/a	n/a	n/a	n/a	n/a
1595.612	1	80	n/a	n/a	1	n/a	n/a	n/a	n/a	n/a	n/a	n/a	n/a
1595.712	1	80	n/a	n/a	1	n/a	n/a	n/a	n/a	n/a	n/a	n/a	n/a
1595.9246	1	31	n/a	n/a	1	n/a	n/a	n/a	n/a	n/a	n/a	n/a	n/a
1597.9412	1	40	n/a	n/a	1	n/a	n/a	n/a	n/a	n/a	n/a	n/a	n/a
1599.9578	1	10	2353.1	2353.1	1	1	0	0	0.5	0.68627	0.4	0.48627	38
1602.3242	1	20	n/a	n/a	1	n/a	n/a	n/a	n/a	n/a	n/a	n/a	n/a
1603.4162	1	80	n/a	n/a	1	n/a	n/a	n/a	n/a	n/a	n/a	n/a	n/a
1603.5162	1	80	n/a	n/a	1	n/a	n/a	n/a	n/a	n/a	n/a	n/a	n/a
1603.7242	1	31	n/a	n/a	1	n/a	n/a	n/a	n/a	n/a	n/a	n/a	n/a
1605.7408	1	40	n/a	n/a	1	n/a	n/a	n/a	n/a	n/a	n/a	n/a	n/a
1607.7572	1	10	3209.3	3209.3	1	1	0	0	0.6	0.93543	0.2	0.40315	39
1610.9738	1	20	n/a	n/a	1	n/a	n/a	n/a	n/a	n/a	n/a	n/a	n/a
1611.9768	1	80	n/a	n/a	1	n/a	n/a	n/a	n/a	n/a	n/a	n/a	n/a
1612.0768	1	80	n/a	n/a	1	n/a	n/a	n/a	n/a	n/a	n/a	n/a	n/a
1612.2904	1	30	n/a	n/a	1	n/a	n/a	n/a	n/a	n/a	n/a	n/a	n/a
1614.3068	1	40	n/a	n/a	1	n/a	n/a	n/a	n/a	n/a	n/a	n/a	n/a
1616.3234	1	10	675	675	1	1	0	0	0.7	0.20284	0.6	0.13996	40
1617.0068	1	20	n/a	n/a	1	n/a	n/a	n/a	n/a	n/a	n/a	n/a	n/a
1618.1048	1	80	n/a	n/a	1	n/a	n/a	n/a	n/a	n/a	n/a	n/a	n/a
1618.2048	1	80	n/a	n/a	1	n/a	n/a	n/a	n/a	n/a	n/a	n/a	n/a
1618.4066	1	30	n/a	n/a	1	n/a	n/a	n/a	n/a	n/a	n/a	n/a	n/a
1620.4232	1	40	n/a	n/a	1	n/a	n/a	n/a	n/a	n/a	n/a	n/a	n/a
1673.62	1	10	897.1	897.1	1	1	0	0	0	0	0.4	0.4	1
1674.52	1	20	n/a	n/a	1	n/a	n/a	n/a	n/a	n/a	n/a	n/a	n/a
1676.23	1	80	n/a	n/a	1	n/a	n/a	n/a	n/a	n/a	n/a	n/a	n/a
1676.33	1	80	n/a	n/a	1	n/a	n/a	n/a	n/a	n/a	n/a	n/a	n/a
1676.5364	1	31	n/a	n/a	1	n/a	n/a	n/a	n/a	n/a	n/a	n/a	n/a
1678.553	1	10	684	684	1	1	0	0	0	0	0.2	0.2	2
1679.253	1	20	n/a	n/a	1	n/a	n/a	n/a	n/a	n/a	n/a	n/a	n/a
1680.745	1	80	n/a	n/a	1	n/a	n/a	n/a	n/a	n/a	n/a	n/a	n/a
1680.845	1	80	n/a	n/a	1	n/a	n/a	n/a	n/a	n/a	n/a	n/a	n/a
1681.0528	1	31	n/a	n/a	1	n/a	n/a	n/a	n/a	n/a	n/a	n/a	n/a
1683.0694	1	10	807.5	807.5	1	1	0	0	0	0	0.7	0.7	3
1683.886	1	20	n/a	n/a	1	n/a	n/a	n/a	n/a	n/a	n/a	n/a	n/a
1685.42	1	80	n/a	n/a	1	n/a	n/a	n/a	n/a	n/a	n/a	n/a	n/a
1685.52	1	80	n/a	n/a	1	n/a	n/a	n/a	n/a	n/a	n/a	n/a	n/a
1685.736	1	31	n/a	n/a	1	n/a	n/a	n/a	n/a	n/a	n/a	n/a	n/a
1687.7524	1	10	972.3	972.3	1	1	0	0	0	0	0.7	0.7	4
1688.7358	1	20	n/a	n/a	1	n/a	n/a	n/a	n/a	n/a	n/a	n/a	n/a
1690.4038	1	80	n/a	n/a	1	n/a	n/a	n/a	n/a	n/a	n/a	n/a	n/a
1690.5038	1	80	n/a	n/a	1	n/a	n/a	n/a	n/a	n/a	n/a	n/a	n/a
1690.719	1	31	n/a	n/a	1	n/a	n/a	n/a	n/a	n/a	n/a	n/a	n/a
1692.7356	1	10	1237.1	1237.1	1	1	0	0	0	0	0.5	0.5	5
1693.9854	1	20	n/a	n/a	1	n/a	n/a	n/a	n/a	n/a	n/a	n/a	n/a
1695.6064	1	80	n/a	n/a	1	n/a	n/a	n/a	n/a	n/a	n/a	n/a	n/a
1695.7064	1	80	n/a	n/a	1	n/a	n/a	n/a	n/a	n/a	n/a	n/a	n/a
1695.9186	1	30	n/a	n/a	1	n/a	n/a	n/a	n/a	n/a	n/a	n/a	n/a
1697.9352	1	10	3445.3	3445.3	1	1	0	0	0	0	0.9	0.9	6
1701.385	1	20	n/a	n/a	1	n/a	n/a	n/a	n/a	n/a	n/a	n/a	n/a
1703.062	1	80	n/a	n/a	1	n/a	n/a	n/a	n/a	n/a	n/a	n/a	n/a
1703.162	1	80	n/a	n/a	1	n/a	n/a	n/a	n/a	n/a	n/a	n/a	n/a
1703.3682	1	31	n/a	n/a	1	n/a	n/a	n/a	n/a	n/a	n/a	n/a	n/a
1705.3848	1	10	843.6	843.6	1	1	0	0	0	0	0.2	0.2	7
1706.2348	1	20	n/a	n/a	1	n/a	n/a	n/a	n/a	n/a	n/a	n/a	n/a
1707.8458	1	80	n/a	n/a	1	n/a	n/a	n/a	n/a	n/a	n/a	n/a	n/a
1707.9458	1	80	n/a	n/a	1	n/a	n/a	n/a	n/a	n/a	n/a	n/a	n/a
1708.1512	1	31	n/a	n/a	1	n/a	n/a	n/a	n/a	n/a	n/a	n/a	n/a
1710.1678	1	10	3404.4	3404.4	1	1	0	0	0	0	0.5	0.5	8
1713.5842	1	20	n/a	n/a	1	n/a	n/a	n/a	n/a	n/a	n/a	n/a	n/a
1714.6332	1	80	n/a	n/a	1	n/a	n/a	n/a	n/a	n/a	n/a	n/a	n/a
1714.7332	1	80	n/a	n/a	1	n/a	n/a	n/a	n/a	n/a	n/a	n/a	n/a
1714.9508	1	31	n/a	n/a	1	n/a	n/a	n/a	n/a	n/a	n/a	n/a	n/a
1716.9674	1	10	668.7	668.7	1	1	0	0	0	0	0.8	0.8	9
1717.6506	1	20	n/a	n/a	1	n/a	n/a	n/a	n/a	n/a	n/a	n/a	n/a
1718.9768	1	80	n/a	n/a	1	n/a	n/a	n/a	n/a	n/a	n/a	n/a	n/a
1719.0768	1	80	n/a	n/a	1	n/a	n/a	n/a	n/a	n/a	n/a	n/a	n/a
1719.284	1	30	n/a	n/a	1	n/a	n/a	n/a	n/a	n/a	n/a	n/a	n/a
1721.3004	1	10	1839.5	1839.5	1	1	0	0	0	0	0.5	0.5	10
1723.1504	1	20	n/a	n/a	1	n/a	n/a	n/a	n/a	n/a	n/a	n/a	n/a
1724.7474	1	80	n/a	n/a	1	n/a	n/a	n/a	n/a	n/a	n/a	n/a	n/a
1724.8474	1	80	n/a	n/a	1	n/a	n/a	n/a	n/a	n/a	n/a	n/a	n/a
1725.0502	1	31	n/a	n/a	1	n/a	n/a	n/a	n/a	n/a	n/a	n/a	n/a
1736.083	1	10	1472.7	1472.7	1	1	0	0	0.5	0.067862	0.9	0.86786	11
1737.5662	1	20	n/a	n/a	1	n/a	n/a	n/a	n/a	n/a	n/a	n/a	n/a
1739.3202	1	80	n/a	n/a	1	n/a	n/a	n/a	n/a	n/a	n/a	n/a	n/a
1739.4202	1	80	n/a	n/a	1	n/a	n/a	n/a	n/a	n/a	n/a	n/a	n/a
1739.6328	1	30	n/a	n/a	1	n/a	n/a	n/a	n/a	n/a	n/a	n/a	n/a
1741.6492	1	40	n/a	n/a	1	n/a	n/a	n/a	n/a	n/a	n/a	n/a	n/a
1743.6658	1	10	577.7	577.7	1	1	0	0	0.4	0.057075	0.4	0.03805	12
1744.249	1	20	n/a	n/a	1	n/a	n/a	n/a	n/a	n/a	n/a	n/a	n/a
1745.8412	1	80	n/a	n/a	1	n/a	n/a	n/a	n/a	n/a	n/a	n/a	n/a
1745.9412	1	80	n/a	n/a	1	n/a	n/a	n/a	n/a	n/a	n/a	n/a	n/a
1746.149	1	31	n/a	n/a	1	n/a	n/a	n/a	n/a	n/a	n/a	n/a	n/a
1748.1656	1	40	n/a	n/a	1	n/a	n/a	n/a	n/a	n/a	n/a	n/a	n/a
1750.182	1	10	1517.2	1517.2	1	1	0	0	0.8	0.46324	0.5	0.35294	13
1751.7154	1	20	n/a	n/a	1	n/a	n/a	n/a	n/a	n/a	n/a	n/a	n/a
1753.4104	1	80	n/a	n/a	1	n/a	n/a	n/a	n/a	n/a	n/a	n/a	n/a
1753.5104	1	80	n/a	n/a	1	n/a	n/a	n/a	n/a	n/a	n/a	n/a	n/a
1753.7152	1	31	n/a	n/a	1	n/a	n/a	n/a	n/a	n/a	n/a	n/a	n/a
1755.7318	1	40	n/a	n/a	1	n/a	n/a	n/a	n/a	n/a	n/a	n/a	n/a
1757.7482	1	10	1406.9	1406.9	1	1	0	0	0.5	0.72006	0.9	0.975	14
1759.1648	1	20	n/a	n/a	1	n/a	n/a	n/a	n/a	n/a	n/a	n/a	n/a
1760.3788	1	80	n/a	n/a	1	n/a	n/a	n/a	n/a	n/a	n/a	n/a	n/a
1760.4788	1	80	n/a	n/a	1	n/a	n/a	n/a	n/a	n/a	n/a	n/a	n/a
1760.6814	1	31	n/a	n/a	1	n/a	n/a	n/a	n/a	n/a	n/a	n/a	n/a
1762.698	1	40	n/a	n/a	1	n/a	n/a	n/a	n/a	n/a	n/a	n/a	n/a
1764.7146	1	10	1512.4	1512.4	1	1	0	0	0.7	0.082281	0.8	0.52532	15
1766.2312	1	20	n/a	n/a	1	n/a	n/a	n/a	n/a	n/a	n/a	n/a	n/a
1768.1842	1	80	n/a	n/a	1	n/a	n/a	n/a	n/a	n/a	n/a	n/a	n/a
1768.2842	1	80	n/a	n/a	1	n/a	n/a	n/a	n/a	n/a	n/a	n/a	n/a
1768.4976	1	31	n/a	n/a	1	n/a	n/a	n/a	n/a	n/a	n/a	n/a	n/a
1770.5142	1	40	n/a	n/a	1	n/a	n/a	n/a	n/a	n/a	n/a	n/a	n/a
1772.5308	1	10	752.1	752.1	1	1	0	0	0.8	0.21697	0.9	0.9375	16
1773.2974	1	20	n/a	n/a	1	n/a	n/a	n/a	n/a	n/a	n/a	n/a	n/a
1775.2914	1	80	n/a	n/a	1	n/a	n/a	n/a	n/a	n/a	n/a	n/a	n/a
1775.3914	1	80	n/a	n/a	1	n/a	n/a	n/a	n/a	n/a	n/a	n/a	n/a
1775.5972	1	31	n/a	n/a	1	n/a	n/a	n/a	n/a	n/a	n/a	n/a	n/a
1777.6138	1	40	n/a	n/a	1	n/a	n/a	n/a	n/a	n/a	n/a	n/a	n/a
1779.6304	1	10	1796.3	1796.3	1	1	0	0	0.6	0.65958	0.4	0.48937	17
1781.4302	1	20	n/a	n/a	1	n/a	n/a	n/a	n/a	n/a	n/a	n/a	n/a
1782.7112	1	80	n/a	n/a	1	n/a	n/a	n/a	n/a	n/a	n/a	n/a	n/a
1782.8112	1	80	n/a	n/a	1	n/a	n/a	n/a	n/a	n/a	n/a	n/a	n/a
1783.0134	1	31	n/a	n/a	1	n/a	n/a	n/a	n/a	n/a	n/a	n/a	n/a
1785.03	1	40	n/a	n/a	1	n/a	n/a	n/a	n/a	n/a	n/a	n/a	n/a
1787.0466	1	10	1931.9	1931.9	1	1	0	0	0.7	0.9513	0.1	0.21971	18
1788.9964	1	20	n/a	n/a	1	n/a	n/a	n/a	n/a	n/a	n/a	n/a	n/a
1790.5764	1	80	n/a	n/a	1	n/a	n/a	n/a	n/a	n/a	n/a	n/a	n/a
1790.6764	1	80	n/a	n/a	1	n/a	n/a	n/a	n/a	n/a	n/a	n/a	n/a
1790.8796	1	31	n/a	n/a	1	n/a	n/a	n/a	n/a	n/a	n/a	n/a	n/a
1792.8962	1	40	n/a	n/a	1	n/a	n/a	n/a	n/a	n/a	n/a	n/a	n/a
1794.9128	1	10	881.6	881.6	1	1	0	0	0.7	0.010102	0.5	0.041667	19
1795.8126	1	20	n/a	n/a	1	n/a	n/a	n/a	n/a	n/a	n/a	n/a	n/a
1797.7066	1	80	n/a	n/a	1	n/a	n/a	n/a	n/a	n/a	n/a	n/a	n/a
1797.8066	1	80	n/a	n/a	1	n/a	n/a	n/a	n/a	n/a	n/a	n/a	n/a
1798.0126	1	30	n/a	n/a	1	n/a	n/a	n/a	n/a	n/a	n/a	n/a	n/a
1800.029	1	40	n/a	n/a	1	n/a	n/a	n/a	n/a	n/a	n/a	n/a	n/a
1802.0456	1	10	836.5	836.5	1	1	0	0	0.4	0.059212	0.4	0.039475	20
1802.8956	1	20	n/a	n/a	1	n/a	n/a	n/a	n/a	n/a	n/a	n/a	n/a
1803.9836	1	80	n/a	n/a	1	n/a	n/a	n/a	n/a	n/a	n/a	n/a	n/a
1804.0836	1	80	n/a	n/a	1	n/a	n/a	n/a	n/a	n/a	n/a	n/a	n/a
1804.2954	1	30	n/a	n/a	1	n/a	n/a	n/a	n/a	n/a	n/a	n/a	n/a
1806.312	1	40	n/a	n/a	1	n/a	n/a	n/a	n/a	n/a	n/a	n/a	n/a
1817.3448	1	10	705	705	1	1	0	0	0	0	0.2	0.2	21
1818.0614	1	20	n/a	n/a	1	n/a	n/a	n/a	n/a	n/a	n/a	n/a	n/a
1819.7024	1	80	n/a	n/a	1	n/a	n/a	n/a	n/a	n/a	n/a	n/a	n/a
1819.8024	1	80	n/a	n/a	1	n/a	n/a	n/a	n/a	n/a	n/a	n/a	n/a
1820.0112	1	31	n/a	n/a	1	n/a	n/a	n/a	n/a	n/a	n/a	n/a	n/a
1822.0278	1	10	661.9	661.9	1	1	0	0	0	0	0.9	0.9	22
1822.6944	1	20	n/a	n/a	1	n/a	n/a	n/a	n/a	n/a	n/a	n/a	n/a
1824.3694	1	80	n/a	n/a	1	n/a	n/a	n/a	n/a	n/a	n/a	n/a	n/a
1824.4694	1	80	n/a	n/a	1	n/a	n/a	n/a	n/a	n/a	n/a	n/a	n/a
1824.6776	1	31	n/a	n/a	1	n/a	n/a	n/a	n/a	n/a	n/a	n/a	n/a
1826.6942	1	10	459.4	459.4	1	1	0	0	0	0	0.3	0.3	23
1827.1608	1	20	n/a	n/a	1	n/a	n/a	n/a	n/a	n/a	n/a	n/a	n/a
1828.6758	1	80	n/a	n/a	1	n/a	n/a	n/a	n/a	n/a	n/a	n/a	n/a
1828.7758	1	80	n/a	n/a	1	n/a	n/a	n/a	n/a	n/a	n/a	n/a	n/a
1828.9774	1	30	n/a	n/a	1	n/a	n/a	n/a	n/a	n/a	n/a	n/a	n/a
1830.994	1	10	527.6	527.6	1	1	0	0	0	0	0.2	0.2	24
1831.5272	1	20	n/a	n/a	1	n/a	n/a	n/a	n/a	n/a	n/a	n/a	n/a
1832.7942	1	80	n/a	n/a	1	n/a	n/a	n/a	n/a	n/a	n/a	n/a	n/a
1832.8942	1	80	n/a	n/a	1	n/a	n/a	n/a	n/a	n/a	n/a	n/a	n/a
1833.1104	1	30	n/a	n/a	1	n/a	n/a	n/a	n/a	n/a	n/a	n/a	n/a
1835.127	1	10	826.4	826.4	1	1	0	0	0	0	0.7	0.7	25
1835.9602	1	20	n/a	n/a	1	n/a	n/a	n/a	n/a	n/a	n/a	n/a	n/a
1837.0892	1	80	n/a	n/a	1	n/a	n/a	n/a	n/a	n/a	n/a	n/a	n/a
1837.1892	1	80	n/a	n/a	1	n/a	n/a	n/a	n/a	n/a	n/a	n/a	n/a
1837.3936	1	31	n/a	n/a	1	n/a	n/a	n/a	n/a	n/a	n/a	n/a	n/a
1839.41	1	10	623.2	623.2	1	1	0	0	0	0	0.1	0.1	26
1840.0434	1	20	n/a	n/a	1	n/a	n/a	n/a	n/a	n/a	n/a	n/a	n/a
1841.2994	1	80	n/a	n/a	1	n/a	n/a	n/a	n/a	n/a	n/a	n/a	n/a
1841.3994	1	80	n/a	n/a	1	n/a	n/a	n/a	n/a	n/a	n/a	n/a	n/a
1841.61	1	31	n/a	n/a	1	n/a	n/a	n/a	n/a	n/a	n/a	n/a	n/a
1843.6264	1	10	918.7	918.7	1	1	0	0	0	0	0.2	0.2	27
1844.5598	1	20	n/a	n/a	1	n/a	n/a	n/a	n/a	n/a	n/a	n/a	n/a
1845.5958	1	80	n/a	n/a	1	n/a	n/a	n/a	n/a	n/a	n/a	n/a	n/a
1845.6958	1	80	n/a	n/a	1	n/a	n/a	n/a	n/a	n/a	n/a	n/a	n/a
1845.9096	1	31	n/a	n/a	1	n/a	n/a	n/a	n/a	n/a	n/a	n/a	n/a
1847.9262	1	10	2586.8	2586.8	1	1	0	0	0	0	0.4	0.4	28
1850.526	1	20	n/a	n/a	1	n/a	n/a	n/a	n/a	n/a	n/a	n/a	n/a
1851.842	1	80	n/a	n/a	1	n/a	n/a	n/a	n/a	n/a	n/a	n/a	n/a
1851.942	1	80	n/a	n/a	1	n/a	n/a	n/a	n/a	n/a	n/a	n/a	n/a
1852.1592	1	30	n/a	n/a	1	n/a	n/a	n/a	n/a	n/a	n/a	n/a	n/a
1854.1758	1	10	1921	1921	1	1	0	0	0	0	0.4	0.4	29
1856.109	1	20	n/a	n/a	1	n/a	n/a	n/a	n/a	n/a	n/a	n/a	n/a
1858.097	1	80	n/a	n/a	1	n/a	n/a	n/a	n/a	n/a	n/a	n/a	n/a
1858.197	1	80	n/a	n/a	1	n/a	n/a	n/a	n/a	n/a	n/a	n/a	n/a
1858.409	1	30	n/a	n/a	1	n/a	n/a	n/a	n/a	n/a	n/a	n/a	n/a
1860.4254	1	10	1735.3	1735.3	1	1	0	0	0	0	0.6	0.6	30
1862.1754	1	20	n/a	n/a	1	n/a	n/a	n/a	n/a	n/a	n/a	n/a	n/a
1863.8024	1	80	n/a	n/a	1	n/a	n/a	n/a	n/a	n/a	n/a	n/a	n/a
1863.9024	1	80	n/a	n/a	1	n/a	n/a	n/a	n/a	n/a	n/a	n/a	n/a
1864.1086	1	31	n/a	n/a	1	n/a	n/a	n/a	n/a	n/a	n/a	n/a	n/a
1875.1412	1	10	971.2	971.2	1	1	0	0	0.7	0.41635	0.1	0.041667	31
1876.1246	1	20	n/a	n/a	1	n/a	n/a	n/a	n/a	n/a	n/a	n/a	n/a
1877.7886	1	80	n/a	n/a	1	n/a	n/a	n/a	n/a	n/a	n/a	n/a	n/a
1877.8886	1	80	n/a	n/a	1	n/a	n/a	n/a	n/a	n/a	n/a	n/a	n/a
1878.091	1	31	n/a	n/a	1	n/a	n/a	n/a	n/a	n/a	n/a	n/a	n/a
1880.1076	1	40	n/a	n/a	1	n/a	n/a	n/a	n/a	n/a	n/a	n/a	n/a
1882.1242	1	10	1988	1988	1	1	0	0	0.8	0.2457	0.7	0.48282	32
1884.124	1	20	n/a	n/a	1	n/a	n/a	n/a	n/a	n/a	n/a	n/a	n/a
1885.789	1	80	n/a	n/a	1	n/a	n/a	n/a	n/a	n/a	n/a	n/a	n/a
1885.889	1	80	n/a	n/a	1	n/a	n/a	n/a	n/a	n/a	n/a	n/a	n/a
1886.0906	1	30	n/a	n/a	1	n/a	n/a	n/a	n/a	n/a	n/a	n/a	n/a
1888.1072	1	40	n/a	n/a	1	n/a	n/a	n/a	n/a	n/a	n/a	n/a	n/a
1890.1236	1	10	1828.3	1828.3	1	1	0	0	0.8	0.86678	0.9	0.9375	33
1891.957	1	20	n/a	n/a	1	n/a	n/a	n/a	n/a	n/a	n/a	n/a	n/a
1893.463	1	80	n/a	n/a	1	n/a	n/a	n/a	n/a	n/a	n/a	n/a	n/a
1893.563	1	80	n/a	n/a	1	n/a	n/a	n/a	n/a	n/a	n/a	n/a	n/a
1893.7734	1	31	n/a	n/a	1	n/a	n/a	n/a	n/a	n/a	n/a	n/a	n/a
1895.79	1	40	n/a	n/a	1	n/a	n/a	n/a	n/a	n/a	n/a	n/a	n/a
1897.8066	1	10	817.4	817.4	1	1	0	0	0.5	0.66585	0.2	0.065851	34
1898.6398	1	20	n/a	n/a	1	n/a	n/a	n/a	n/a	n/a	n/a	n/a	n/a
1899.9328	1	80	n/a	n/a	1	n/a	n/a	n/a	n/a	n/a	n/a	n/a	n/a
1900.0328	1	80	n/a	n/a	1	n/a	n/a	n/a	n/a	n/a	n/a	n/a	n/a
1900.2398	1	31	n/a	n/a	1	n/a	n/a	n/a	n/a	n/a	n/a	n/a	n/a
1902.2562	1	40	n/a	n/a	1	n/a	n/a	n/a	n/a	n/a	n/a	n/a	n/a
1904.2728	1	10	718.9	718.9	1	1	0	0	0.5	0.017551	0.9	0.81755	35
1905.0062	1	20	n/a	n/a	1	n/a	n/a	n/a	n/a	n/a	n/a	n/a	n/a
1906.7062	1	80	n/a	n/a	1	n/a	n/a	n/a	n/a	n/a	n/a	n/a	n/a
1906.8062	1	80	n/a	n/a	1	n/a	n/a	n/a	n/a	n/a	n/a	n/a	n/a
1907.0226	1	31	n/a	n/a	1	n/a	n/a	n/a	n/a	n/a	n/a	n/a	n/a
1909.0392	1	40	n/a	n/a	1	n/a	n/a	n/a	n/a	n/a	n/a	n/a	n/a
1911.0558	1	10	1583.8	1583.8	1	1	0	0	0.6	0.28719	0.6	0.43079	36
1912.6556	1	20	n/a	n/a	1	n/a	n/a	n/a	n/a	n/a	n/a	n/a	n/a
1913.9466	1	80	n/a	n/a	1	n/a	n/a	n/a	n/a	n/a	n/a	n/a	n/a
1914.0466	1	80	n/a	n/a	1	n/a	n/a	n/a	n/a	n/a	n/a	n/a	n/a
1914.2556	1	31	n/a	n/a	1	n/a	n/a	n/a	n/a	n/a	n/a	n/a	n/a
1916.2722	1	40	n/a	n/a	1	n/a	n/a	n/a	n/a	n/a	n/a	n/a	n/a
1918.2886	1	10	1278.8	1278.8	1	1	0	0	0.6	0.12224	0.8	0.68335	37
1919.572	1	20	n/a	n/a	1	n/a	n/a	n/a	n/a	n/a	n/a	n/a	n/a
1921.523	1	80	n/a	n/a	1	n/a	n/a	n/a	n/a	n/a	n/a	n/a	n/a
1921.623	1	80	n/a	n/a	1	n/a	n/a	n/a	n/a	n/a	n/a	n/a	n/a
1921.8384	1	31	n/a	n/a	1	n/a	n/a	n/a	n/a	n/a	n/a	n/a	n/a
1923.855	1	40	n/a	n/a	1	n/a	n/a	n/a	n/a	n/a	n/a	n/a	n/a
1925.8716	1	10	1119.7	1119.7	1	1	0	0	0.8	0.56856	0.9	0.9375	38
1927.0048	1	20	n/a	n/a	1	n/a	n/a	n/a	n/a	n/a	n/a	n/a	n/a
1928.0998	1	80	n/a	n/a	1	n/a	n/a	n/a	n/a	n/a	n/a	n/a	n/a
1928.1998	1	80	n/a	n/a	1	n/a	n/a	n/a	n/a	n/a	n/a	n/a	n/a
1928.4048	1	31	n/a	n/a	1	n/a	n/a	n/a	n/a	n/a	n/a	n/a	n/a
1930.4212	1	40	n/a	n/a	1	n/a	n/a	n/a	n/a	n/a	n/a	n/a	n/a
1932.4378	1	10	1625.2	1625.2	1	1	0	0	0.6	0.43849	0.7	0.90774	39
1934.071	1	20	n/a	n/a	1	n/a	n/a	n/a	n/a	n/a	n/a	n/a	n/a
1935.526	1	80	n/a	n/a	1	n/a	n/a	n/a	n/a	n/a	n/a	n/a	n/a
1935.626	1	80	n/a	n/a	1	n/a	n/a	n/a	n/a	n/a	n/a	n/a	n/a
1935.8376	1	31	n/a	n/a	1	n/a	n/a	n/a	n/a	n/a	n/a	n/a	n/a
1937.8542	1	40	n/a	n/a	1	n/a	n/a	n/a	n/a	n/a	n/a	n/a	n/a
1939.8708	1	10	960.3	960.3	1	1	0	0	0.4	0.11916	0.9	0.91278	40
1940.8374	1	20	n/a	n/a	1	n/a	n/a	n/a	n/a	n/a	n/a	n/a	n/a
1942.2864	1	80	n/a	n/a	1	n/a	n/a	n/a	n/a	n/a	n/a	n/a	n/a
1942.3864	1	80	n/a	n/a	1	n/a	n/a	n/a	n/a	n/a	n/a	n/a	n/a
1942.6038	1	31	n/a	n/a	1	n/a	n/a	n/a	n/a	n/a	n/a	n/a	n/a
1944.6204	1	40	n/a	n/a	1	n/a	n/a	n/a	n/a	n/a	n/a	n/a	n/a
