onset	duration	value	response	rt	good	TMSips	TMSppc	TMSvertex	a	bias	p	pv	ronda
18.3592	1	10	7025.8	7025.8	1	0	0	1	0	0	0.5	0.5	1
25.3754	1	20	n/a	n/a	1	n/a	n/a	n/a	n/a	n/a	n/a	n/a	n/a
26.4704	1	80	n/a	n/a	1	n/a	n/a	n/a	n/a	n/a	n/a	n/a	n/a
26.5704	1	80	n/a	n/a	1	n/a	n/a	n/a	n/a	n/a	n/a	n/a	n/a
26.7754	1	30	n/a	n/a	1	n/a	n/a	n/a	n/a	n/a	n/a	n/a	n/a
28.792	1	10	1487.1	1487.1	1	0	0	1	0	0	0.1	0.1	2
30.2918	1	20	n/a	n/a	1	n/a	n/a	n/a	n/a	n/a	n/a	n/a	n/a
31.8948	1	80	n/a	n/a	1	n/a	n/a	n/a	n/a	n/a	n/a	n/a	n/a
31.9948	1	80	n/a	n/a	1	n/a	n/a	n/a	n/a	n/a	n/a	n/a	n/a
32.2084	1	31	n/a	n/a	1	n/a	n/a	n/a	n/a	n/a	n/a	n/a	n/a
34.225	1	10	966	966	1	0	0	1	0	0	0.6	0.6	3
35.2082	1	20	n/a	n/a	1	n/a	n/a	n/a	n/a	n/a	n/a	n/a	n/a
36.5982	1	80	n/a	n/a	1	n/a	n/a	n/a	n/a	n/a	n/a	n/a	n/a
36.6982	1	80	n/a	n/a	1	n/a	n/a	n/a	n/a	n/a	n/a	n/a	n/a
36.9082	1	31	n/a	n/a	1	n/a	n/a	n/a	n/a	n/a	n/a	n/a	n/a
38.9246	1	10	842.2	842.2	1	0	0	1	0	0	0.1	0.1	4
39.7746	1	20	n/a	n/a	1	n/a	n/a	n/a	n/a	n/a	n/a	n/a	n/a
41.1026	1	80	n/a	n/a	1	n/a	n/a	n/a	n/a	n/a	n/a	n/a	n/a
41.2026	1	80	n/a	n/a	1	n/a	n/a	n/a	n/a	n/a	n/a	n/a	n/a
41.4078	1	31	n/a	n/a	1	n/a	n/a	n/a	n/a	n/a	n/a	n/a	n/a
43.4244	1	10	1158.3	1158.3	1	0	0	1	0	0	0.4	0.4	5
44.591	1	20	n/a	n/a	1	n/a	n/a	n/a	n/a	n/a	n/a	n/a	n/a
46.385	1	80	n/a	n/a	1	n/a	n/a	n/a	n/a	n/a	n/a	n/a	n/a
46.485	1	80	n/a	n/a	1	n/a	n/a	n/a	n/a	n/a	n/a	n/a	n/a
46.6908	1	30	n/a	n/a	1	n/a	n/a	n/a	n/a	n/a	n/a	n/a	n/a
48.7074	1	10	755.2	755.2	1	0	0	1	0	0	0.7	0.7	6
49.474	1	20	n/a	n/a	1	n/a	n/a	n/a	n/a	n/a	n/a	n/a	n/a
51.066	1	80	n/a	n/a	1	n/a	n/a	n/a	n/a	n/a	n/a	n/a	n/a
51.166	1	80	n/a	n/a	1	n/a	n/a	n/a	n/a	n/a	n/a	n/a	n/a
51.374	1	30	n/a	n/a	1	n/a	n/a	n/a	n/a	n/a	n/a	n/a	n/a
53.3904	1	10	728.1	728.1	1	0	0	1	0	0	0.1	0.1	7
54.1238	1	20	n/a	n/a	1	n/a	n/a	n/a	n/a	n/a	n/a	n/a	n/a
55.4498	1	80	n/a	n/a	1	n/a	n/a	n/a	n/a	n/a	n/a	n/a	n/a
55.5498	1	80	n/a	n/a	1	n/a	n/a	n/a	n/a	n/a	n/a	n/a	n/a
55.757	1	31	n/a	n/a	1	n/a	n/a	n/a	n/a	n/a	n/a	n/a	n/a
57.7736	1	10	1080.9	1080.9	1	0	0	1	0	0	0.4	0.4	8
58.8568	1	20	n/a	n/a	1	n/a	n/a	n/a	n/a	n/a	n/a	n/a	n/a
60.4168	1	80	n/a	n/a	1	n/a	n/a	n/a	n/a	n/a	n/a	n/a	n/a
60.5168	1	80	n/a	n/a	1	n/a	n/a	n/a	n/a	n/a	n/a	n/a	n/a
60.7234	1	31	n/a	n/a	1	n/a	n/a	n/a	n/a	n/a	n/a	n/a	n/a
62.74	1	10	1746.4	1746.4	1	0	0	1	0	0	0.9	0.9	9
64.4898	1	20	n/a	n/a	1	n/a	n/a	n/a	n/a	n/a	n/a	n/a	n/a
65.8408	1	80	n/a	n/a	1	n/a	n/a	n/a	n/a	n/a	n/a	n/a	n/a
65.9408	1	80	n/a	n/a	1	n/a	n/a	n/a	n/a	n/a	n/a	n/a	n/a
66.1564	1	30	n/a	n/a	1	n/a	n/a	n/a	n/a	n/a	n/a	n/a	n/a
68.173	1	10	1289.3	1289.3	1	0	0	1	0	0	0.1	0.1	10
69.4728	1	20	n/a	n/a	1	n/a	n/a	n/a	n/a	n/a	n/a	n/a	n/a
71.0058	1	80	n/a	n/a	1	n/a	n/a	n/a	n/a	n/a	n/a	n/a	n/a
71.1058	1	80	n/a	n/a	1	n/a	n/a	n/a	n/a	n/a	n/a	n/a	n/a
71.3228	1	30	n/a	n/a	1	n/a	n/a	n/a	n/a	n/a	n/a	n/a	n/a
82.3554	1	10	1650.4	1650.4	1	0	0	1	0.5	0.85684	0.1	0.056841	11
84.022	1	20	n/a	n/a	1	n/a	n/a	n/a	n/a	n/a	n/a	n/a	n/a
85.109	1	80	n/a	n/a	1	n/a	n/a	n/a	n/a	n/a	n/a	n/a	n/a
85.209	1	80	n/a	n/a	1	n/a	n/a	n/a	n/a	n/a	n/a	n/a	n/a
85.422	1	31	n/a	n/a	1	n/a	n/a	n/a	n/a	n/a	n/a	n/a	n/a
87.4384	1	40	n/a	n/a	1	n/a	n/a	n/a	n/a	n/a	n/a	n/a	n/a
89.455	1	10	1622.7	1622.7	1	0	0	1	0.8	0.92445	0.2	0.69781	12
91.0882	1	20	n/a	n/a	1	n/a	n/a	n/a	n/a	n/a	n/a	n/a	n/a
92.3762	1	80	n/a	n/a	1	n/a	n/a	n/a	n/a	n/a	n/a	n/a	n/a
92.4762	1	80	n/a	n/a	1	n/a	n/a	n/a	n/a	n/a	n/a	n/a	n/a
92.6882	1	31	n/a	n/a	1	n/a	n/a	n/a	n/a	n/a	n/a	n/a	n/a
94.7048	1	40	n/a	n/a	1	n/a	n/a	n/a	n/a	n/a	n/a	n/a	n/a
96.7212	1	10	948.3	948.3	1	0	0	1	0.5	0.48017	0.3	0.080172	13
97.6878	1	20	n/a	n/a	1	n/a	n/a	n/a	n/a	n/a	n/a	n/a	n/a
98.8458	1	80	n/a	n/a	1	n/a	n/a	n/a	n/a	n/a	n/a	n/a	n/a
98.9458	1	80	n/a	n/a	1	n/a	n/a	n/a	n/a	n/a	n/a	n/a	n/a
99.1544	1	31	n/a	n/a	1	n/a	n/a	n/a	n/a	n/a	n/a	n/a	n/a
101.171	1	40	n/a	n/a	1	n/a	n/a	n/a	n/a	n/a	n/a	n/a	n/a
103.1876	1	10	865.8	865.8	1	0	0	1	0.4	0.66666	0.3	0.27777	14
104.0708	1	20	n/a	n/a	1	n/a	n/a	n/a	n/a	n/a	n/a	n/a	n/a
105.8898	1	80	n/a	n/a	1	n/a	n/a	n/a	n/a	n/a	n/a	n/a	n/a
105.9898	1	80	n/a	n/a	1	n/a	n/a	n/a	n/a	n/a	n/a	n/a	n/a
106.204	1	30	n/a	n/a	1	n/a	n/a	n/a	n/a	n/a	n/a	n/a	n/a
108.2206	1	40	n/a	n/a	1	n/a	n/a	n/a	n/a	n/a	n/a	n/a	n/a
110.2372	1	10	568.2	568.2	1	0	0	1	0.6	0.44293	0.7	0.91439	15
110.8204	1	20	n/a	n/a	1	n/a	n/a	n/a	n/a	n/a	n/a	n/a	n/a
112.3304	1	80	n/a	n/a	1	n/a	n/a	n/a	n/a	n/a	n/a	n/a	n/a
112.4304	1	80	n/a	n/a	1	n/a	n/a	n/a	n/a	n/a	n/a	n/a	n/a
112.637	1	31	n/a	n/a	1	n/a	n/a	n/a	n/a	n/a	n/a	n/a	n/a
114.6536	1	40	n/a	n/a	1	n/a	n/a	n/a	n/a	n/a	n/a	n/a	n/a
116.67	1	10	935	935	1	0	0	1	0.5	0.15653	0.6	0.35653	16
117.62	1	20	n/a	n/a	1	n/a	n/a	n/a	n/a	n/a	n/a	n/a	n/a
118.905	1	80	n/a	n/a	1	n/a	n/a	n/a	n/a	n/a	n/a	n/a	n/a
119.005	1	80	n/a	n/a	1	n/a	n/a	n/a	n/a	n/a	n/a	n/a	n/a
119.22	1	31	n/a	n/a	1	n/a	n/a	n/a	n/a	n/a	n/a	n/a	n/a
121.2364	1	40	n/a	n/a	1	n/a	n/a	n/a	n/a	n/a	n/a	n/a	n/a
123.253	1	10	1551.9	1551.9	1	0	0	1	0.8	0.94066	0.7	0.9375	17
124.8196	1	20	n/a	n/a	1	n/a	n/a	n/a	n/a	n/a	n/a	n/a	n/a
126.2826	1	80	n/a	n/a	1	n/a	n/a	n/a	n/a	n/a	n/a	n/a	n/a
126.3826	1	80	n/a	n/a	1	n/a	n/a	n/a	n/a	n/a	n/a	n/a	n/a
126.5862	1	31	n/a	n/a	1	n/a	n/a	n/a	n/a	n/a	n/a	n/a	n/a
128.6028	1	40	n/a	n/a	1	n/a	n/a	n/a	n/a	n/a	n/a	n/a	n/a
130.6192	1	10	1017.5	1017.5	1	0	0	1	0.4	0.6514	0.3	0.2676	18
131.6526	1	20	n/a	n/a	1	n/a	n/a	n/a	n/a	n/a	n/a	n/a	n/a
133.4836	1	80	n/a	n/a	1	n/a	n/a	n/a	n/a	n/a	n/a	n/a	n/a
133.5836	1	80	n/a	n/a	1	n/a	n/a	n/a	n/a	n/a	n/a	n/a	n/a
133.7858	1	31	n/a	n/a	1	n/a	n/a	n/a	n/a	n/a	n/a	n/a	n/a
135.8022	1	40	n/a	n/a	1	n/a	n/a	n/a	n/a	n/a	n/a	n/a	n/a
137.8188	1	10	1881.8	1881.8	1	0	0	1	0.8	0.66387	0.1	0.0625	19
139.7188	1	20	n/a	n/a	1	n/a	n/a	n/a	n/a	n/a	n/a	n/a	n/a
140.8138	1	80	n/a	n/a	1	n/a	n/a	n/a	n/a	n/a	n/a	n/a	n/a
140.9138	1	80	n/a	n/a	1	n/a	n/a	n/a	n/a	n/a	n/a	n/a	n/a
141.1186	1	31	n/a	n/a	1	n/a	n/a	n/a	n/a	n/a	n/a	n/a	n/a
143.1352	1	40	n/a	n/a	1	n/a	n/a	n/a	n/a	n/a	n/a	n/a	n/a
145.1518	1	10	1396.7	1396.7	1	0	0	1	0.5	0.27752	0.9	0.975	20
146.5516	1	20	n/a	n/a	1	n/a	n/a	n/a	n/a	n/a	n/a	n/a	n/a
147.7326	1	80	n/a	n/a	1	n/a	n/a	n/a	n/a	n/a	n/a	n/a	n/a
147.8326	1	80	n/a	n/a	1	n/a	n/a	n/a	n/a	n/a	n/a	n/a	n/a
148.0348	1	30	n/a	n/a	1	n/a	n/a	n/a	n/a	n/a	n/a	n/a	n/a
150.0514	1	40	n/a	n/a	1	n/a	n/a	n/a	n/a	n/a	n/a	n/a	n/a
161.0842	1	10	1800	1800	1	0	0	1	0	0	0.8	0.8	21
162.9006	1	20	n/a	n/a	1	n/a	n/a	n/a	n/a	n/a	n/a	n/a	n/a
164.6076	1	80	n/a	n/a	1	n/a	n/a	n/a	n/a	n/a	n/a	n/a	n/a
164.7076	1	80	n/a	n/a	1	n/a	n/a	n/a	n/a	n/a	n/a	n/a	n/a
164.9172	1	31	n/a	n/a	1	n/a	n/a	n/a	n/a	n/a	n/a	n/a	n/a
166.9338	1	10	1262.1	1262.1	1	0	0	1	0	0	0.4	0.4	22
168.2004	1	20	n/a	n/a	1	n/a	n/a	n/a	n/a	n/a	n/a	n/a	n/a
169.4464	1	80	n/a	n/a	1	n/a	n/a	n/a	n/a	n/a	n/a	n/a	n/a
169.5464	1	80	n/a	n/a	1	n/a	n/a	n/a	n/a	n/a	n/a	n/a	n/a
169.7502	1	30	n/a	n/a	1	n/a	n/a	n/a	n/a	n/a	n/a	n/a	n/a
171.7668	1	10	1373	1373	1	0	0	1	0	0	0.6	0.6	23
173.15	1	20	n/a	n/a	1	n/a	n/a	n/a	n/a	n/a	n/a	n/a	n/a
174.465	1	80	n/a	n/a	1	n/a	n/a	n/a	n/a	n/a	n/a	n/a	n/a
174.565	1	80	n/a	n/a	1	n/a	n/a	n/a	n/a	n/a	n/a	n/a	n/a
174.7666	1	31	n/a	n/a	1	n/a	n/a	n/a	n/a	n/a	n/a	n/a	n/a
176.7832	1	10	1604.5	1604.5	1	0	0	1	0	0	0.5	0.5	24
178.3998	1	20	n/a	n/a	1	n/a	n/a	n/a	n/a	n/a	n/a	n/a	n/a
179.7408	1	80	n/a	n/a	1	n/a	n/a	n/a	n/a	n/a	n/a	n/a	n/a
179.8408	1	80	n/a	n/a	1	n/a	n/a	n/a	n/a	n/a	n/a	n/a	n/a
180.0496	1	30	n/a	n/a	1	n/a	n/a	n/a	n/a	n/a	n/a	n/a	n/a
182.0662	1	10	1281.4	1281.4	1	0	0	1	0	0	0.5	0.5	25
183.3662	1	20	n/a	n/a	1	n/a	n/a	n/a	n/a	n/a	n/a	n/a	n/a
184.7092	1	80	n/a	n/a	1	n/a	n/a	n/a	n/a	n/a	n/a	n/a	n/a
184.8092	1	80	n/a	n/a	1	n/a	n/a	n/a	n/a	n/a	n/a	n/a	n/a
185.016	1	31	n/a	n/a	1	n/a	n/a	n/a	n/a	n/a	n/a	n/a	n/a
187.0326	1	10	2042.9	2042.9	1	0	0	1	0	0	0.1	0.1	26
189.0824	1	20	n/a	n/a	1	n/a	n/a	n/a	n/a	n/a	n/a	n/a	n/a
190.6854	1	80	n/a	n/a	1	n/a	n/a	n/a	n/a	n/a	n/a	n/a	n/a
190.7854	1	80	n/a	n/a	1	n/a	n/a	n/a	n/a	n/a	n/a	n/a	n/a
190.999	1	30	n/a	n/a	1	n/a	n/a	n/a	n/a	n/a	n/a	n/a	n/a
193.0156	1	10	1035.8	1035.8	1	0	0	1	0	0	0.2	0.2	27
194.0656	1	20	n/a	n/a	1	n/a	n/a	n/a	n/a	n/a	n/a	n/a	n/a
195.3026	1	80	n/a	n/a	1	n/a	n/a	n/a	n/a	n/a	n/a	n/a	n/a
195.4026	1	80	n/a	n/a	1	n/a	n/a	n/a	n/a	n/a	n/a	n/a	n/a
195.6154	1	31	n/a	n/a	1	n/a	n/a	n/a	n/a	n/a	n/a	n/a	n/a
197.632	1	10	1299.3	1299.3	1	0	0	1	0	0	0.4	0.4	28
198.9486	1	20	n/a	n/a	1	n/a	n/a	n/a	n/a	n/a	n/a	n/a	n/a
200.1626	1	80	n/a	n/a	1	n/a	n/a	n/a	n/a	n/a	n/a	n/a	n/a
200.2626	1	80	n/a	n/a	1	n/a	n/a	n/a	n/a	n/a	n/a	n/a	n/a
200.4652	1	30	n/a	n/a	1	n/a	n/a	n/a	n/a	n/a	n/a	n/a	n/a
202.4816	1	10	625.5	625.5	1	0	0	1	0	0	0.2	0.2	29
203.115	1	20	n/a	n/a	1	n/a	n/a	n/a	n/a	n/a	n/a	n/a	n/a
204.952	1	80	n/a	n/a	1	n/a	n/a	n/a	n/a	n/a	n/a	n/a	n/a
205.052	1	80	n/a	n/a	1	n/a	n/a	n/a	n/a	n/a	n/a	n/a	n/a
205.2648	1	31	n/a	n/a	1	n/a	n/a	n/a	n/a	n/a	n/a	n/a	n/a
207.2814	1	10	593.7	593.7	1	0	0	1	0	0	0.9	0.9	30
207.8814	1	20	n/a	n/a	1	n/a	n/a	n/a	n/a	n/a	n/a	n/a	n/a
209.1524	1	80	n/a	n/a	1	n/a	n/a	n/a	n/a	n/a	n/a	n/a	n/a
209.2524	1	80	n/a	n/a	1	n/a	n/a	n/a	n/a	n/a	n/a	n/a	n/a
209.4646	1	30	n/a	n/a	1	n/a	n/a	n/a	n/a	n/a	n/a	n/a	n/a
220.4972	1	10	1329.5	1329.5	1	0	0	1	0.8	0.3045	0.1	0.0625	31
221.8306	1	20	n/a	n/a	1	n/a	n/a	n/a	n/a	n/a	n/a	n/a	n/a
223.3936	1	80	n/a	n/a	1	n/a	n/a	n/a	n/a	n/a	n/a	n/a	n/a
223.4936	1	80	n/a	n/a	1	n/a	n/a	n/a	n/a	n/a	n/a	n/a	n/a
223.697	1	30	n/a	n/a	1	n/a	n/a	n/a	n/a	n/a	n/a	n/a	n/a
225.7136	1	40	n/a	n/a	1	n/a	n/a	n/a	n/a	n/a	n/a	n/a	n/a
227.7302	1	10	992.4	992.4	1	0	0	1	0.8	0.21321	0.9	0.9375	32
228.7302	1	20	n/a	n/a	1	n/a	n/a	n/a	n/a	n/a	n/a	n/a	n/a
229.8572	1	80	n/a	n/a	1	n/a	n/a	n/a	n/a	n/a	n/a	n/a	n/a
229.9572	1	80	n/a	n/a	1	n/a	n/a	n/a	n/a	n/a	n/a	n/a	n/a
230.1634	1	30	n/a	n/a	1	n/a	n/a	n/a	n/a	n/a	n/a	n/a	n/a
232.18	1	40	n/a	n/a	1	n/a	n/a	n/a	n/a	n/a	n/a	n/a	n/a
234.1964	1	10	733.9	733.9	1	0	0	1	0.7	0.77179	0.4	0.80085	33
234.9464	1	20	n/a	n/a	1	n/a	n/a	n/a	n/a	n/a	n/a	n/a	n/a
236.3804	1	80	n/a	n/a	1	n/a	n/a	n/a	n/a	n/a	n/a	n/a	n/a
236.4804	1	80	n/a	n/a	1	n/a	n/a	n/a	n/a	n/a	n/a	n/a	n/a
236.6964	1	30	n/a	n/a	1	n/a	n/a	n/a	n/a	n/a	n/a	n/a	n/a
238.7128	1	40	n/a	n/a	1	n/a	n/a	n/a	n/a	n/a	n/a	n/a	n/a
240.7294	1	10	648.9	648.9	1	0	0	1	0.6	0.57619	0.3	0.11428	34
241.396	1	20	n/a	n/a	1	n/a	n/a	n/a	n/a	n/a	n/a	n/a	n/a
242.826	1	80	n/a	n/a	1	n/a	n/a	n/a	n/a	n/a	n/a	n/a	n/a
242.926	1	80	n/a	n/a	1	n/a	n/a	n/a	n/a	n/a	n/a	n/a	n/a
243.1292	1	31	n/a	n/a	1	n/a	n/a	n/a	n/a	n/a	n/a	n/a	n/a
245.1458	1	40	n/a	n/a	1	n/a	n/a	n/a	n/a	n/a	n/a	n/a	n/a
247.1624	1	10	3079.7	3079.7	1	0	0	1	0.8	0.059825	0.9	0.7393	35
250.2456	1	20	n/a	n/a	1	n/a	n/a	n/a	n/a	n/a	n/a	n/a	n/a
251.8786	1	80	n/a	n/a	1	n/a	n/a	n/a	n/a	n/a	n/a	n/a	n/a
251.9786	1	80	n/a	n/a	1	n/a	n/a	n/a	n/a	n/a	n/a	n/a	n/a
252.1954	1	31	n/a	n/a	1	n/a	n/a	n/a	n/a	n/a	n/a	n/a	n/a
254.212	1	40	n/a	n/a	1	n/a	n/a	n/a	n/a	n/a	n/a	n/a	n/a
256.2284	1	10	1277.4	1277.4	1	0	0	1	0.4	0.41926	0.1	0.020833	36
257.5118	1	20	n/a	n/a	1	n/a	n/a	n/a	n/a	n/a	n/a	n/a	n/a
258.8388	1	80	n/a	n/a	1	n/a	n/a	n/a	n/a	n/a	n/a	n/a	n/a
258.9388	1	80	n/a	n/a	1	n/a	n/a	n/a	n/a	n/a	n/a	n/a	n/a
259.145	1	30	n/a	n/a	1	n/a	n/a	n/a	n/a	n/a	n/a	n/a	n/a
261.1616	1	40	n/a	n/a	1	n/a	n/a	n/a	n/a	n/a	n/a	n/a	n/a
263.178	1	10	823.7	823.7	1	0	0	1	0.4	0.64262	0.7	0.92842	37
264.0114	1	20	n/a	n/a	1	n/a	n/a	n/a	n/a	n/a	n/a	n/a	n/a
265.1124	1	80	n/a	n/a	1	n/a	n/a	n/a	n/a	n/a	n/a	n/a	n/a
265.2124	1	80	n/a	n/a	1	n/a	n/a	n/a	n/a	n/a	n/a	n/a	n/a
265.428	1	31	n/a	n/a	1	n/a	n/a	n/a	n/a	n/a	n/a	n/a	n/a
267.4446	1	40	n/a	n/a	1	n/a	n/a	n/a	n/a	n/a	n/a	n/a	n/a
269.461	1	10	1212.6	1212.6	1	0	0	1	0.5	0.42678	0.1	0.025	38
270.6776	1	20	n/a	n/a	1	n/a	n/a	n/a	n/a	n/a	n/a	n/a	n/a
271.7196	1	80	n/a	n/a	1	n/a	n/a	n/a	n/a	n/a	n/a	n/a	n/a
271.8196	1	80	n/a	n/a	1	n/a	n/a	n/a	n/a	n/a	n/a	n/a	n/a
272.0276	1	31	n/a	n/a	1	n/a	n/a	n/a	n/a	n/a	n/a	n/a	n/a
274.0442	1	40	n/a	n/a	1	n/a	n/a	n/a	n/a	n/a	n/a	n/a	n/a
276.0606	1	10	996.8	996.8	1	0	0	1	0.5	0.39826	0.1	0.025	39
277.0606	1	20	n/a	n/a	1	n/a	n/a	n/a	n/a	n/a	n/a	n/a	n/a
278.5606	1	80	n/a	n/a	1	n/a	n/a	n/a	n/a	n/a	n/a	n/a	n/a
278.6606	1	80	n/a	n/a	1	n/a	n/a	n/a	n/a	n/a	n/a	n/a	n/a
278.8772	1	31	n/a	n/a	1	n/a	n/a	n/a	n/a	n/a	n/a	n/a	n/a
280.8938	1	40	n/a	n/a	1	n/a	n/a	n/a	n/a	n/a	n/a	n/a	n/a
282.9102	1	10	2131	2131	1	0	0	1	0.6	0.72531	0.5	0.83796	40
285.0434	1	20	n/a	n/a	1	n/a	n/a	n/a	n/a	n/a	n/a	n/a	n/a
286.2354	1	80	n/a	n/a	1	n/a	n/a	n/a	n/a	n/a	n/a	n/a	n/a
286.3354	1	80	n/a	n/a	1	n/a	n/a	n/a	n/a	n/a	n/a	n/a	n/a
286.5434	1	31	n/a	n/a	1	n/a	n/a	n/a	n/a	n/a	n/a	n/a	n/a
288.56	1	40	n/a	n/a	1	n/a	n/a	n/a	n/a	n/a	n/a	n/a	n/a
373.8216	1	10	1873.7	1873.7	1	0	1	0	0	0	0.8	0.8	1
375.7048	1	20	n/a	n/a	1	n/a	n/a	n/a	n/a	n/a	n/a	n/a	n/a
377.0468	1	80	n/a	n/a	1	n/a	n/a	n/a	n/a	n/a	n/a	n/a	n/a
377.1468	1	80	n/a	n/a	1	n/a	n/a	n/a	n/a	n/a	n/a	n/a	n/a
377.3546	1	31	n/a	n/a	1	n/a	n/a	n/a	n/a	n/a	n/a	n/a	n/a
379.3712	1	10	595.9	595.9	1	0	1	0	0	0	0.2	0.2	2
379.9712	1	20	n/a	n/a	1	n/a	n/a	n/a	n/a	n/a	n/a	n/a	n/a
381.8682	1	80	n/a	n/a	1	n/a	n/a	n/a	n/a	n/a	n/a	n/a	n/a
381.9682	1	80	n/a	n/a	1	n/a	n/a	n/a	n/a	n/a	n/a	n/a	n/a
382.171	1	31	n/a	n/a	1	n/a	n/a	n/a	n/a	n/a	n/a	n/a	n/a
384.1876	1	10	1299.4	1299.4	1	0	1	0	0	0	0.4	0.4	3
385.5042	1	20	n/a	n/a	1	n/a	n/a	n/a	n/a	n/a	n/a	n/a	n/a
387.1072	1	80	n/a	n/a	1	n/a	n/a	n/a	n/a	n/a	n/a	n/a	n/a
387.2072	1	80	n/a	n/a	1	n/a	n/a	n/a	n/a	n/a	n/a	n/a	n/a
387.4208	1	30	n/a	n/a	1	n/a	n/a	n/a	n/a	n/a	n/a	n/a	n/a
389.4372	1	10	785.6	785.6	1	0	1	0	0	0	0.2	0.2	4
390.2372	1	20	n/a	n/a	1	n/a	n/a	n/a	n/a	n/a	n/a	n/a	n/a
391.8402	1	80	n/a	n/a	1	n/a	n/a	n/a	n/a	n/a	n/a	n/a	n/a
391.9402	1	80	n/a	n/a	1	n/a	n/a	n/a	n/a	n/a	n/a	n/a	n/a
392.1538	1	31	n/a	n/a	1	n/a	n/a	n/a	n/a	n/a	n/a	n/a	n/a
394.1704	1	10	836.5	836.5	1	0	1	0	0	0	0.3	0.3	5
395.0202	1	20	n/a	n/a	1	n/a	n/a	n/a	n/a	n/a	n/a	n/a	n/a
396.9724	1	80	n/a	n/a	1	n/a	n/a	n/a	n/a	n/a	n/a	n/a	n/a
397.0724	1	80	n/a	n/a	1	n/a	n/a	n/a	n/a	n/a	n/a	n/a	n/a
397.2868	1	30	n/a	n/a	1	n/a	n/a	n/a	n/a	n/a	n/a	n/a	n/a
399.3034	1	10	1735.3	1735.3	1	0	1	0	0	0	0.5	0.5	6
401.0532	1	20	n/a	n/a	1	n/a	n/a	n/a	n/a	n/a	n/a	n/a	n/a
402.9892	1	80	n/a	n/a	1	n/a	n/a	n/a	n/a	n/a	n/a	n/a	n/a
403.0892	1	80	n/a	n/a	1	n/a	n/a	n/a	n/a	n/a	n/a	n/a	n/a
403.3032	1	30	n/a	n/a	1	n/a	n/a	n/a	n/a	n/a	n/a	n/a	n/a
405.3196	1	10	1718.8	1718.8	1	0	1	0	0	0	0.6	0.6	7
407.053	1	20	n/a	n/a	1	n/a	n/a	n/a	n/a	n/a	n/a	n/a	n/a
408.935	1	80	n/a	n/a	1	n/a	n/a	n/a	n/a	n/a	n/a	n/a	n/a
409.035	1	80	n/a	n/a	1	n/a	n/a	n/a	n/a	n/a	n/a	n/a	n/a
409.2528	1	31	n/a	n/a	1	n/a	n/a	n/a	n/a	n/a	n/a	n/a	n/a
411.2694	1	10	1081	1081	1	0	1	0	0	0	0.5	0.5	8
412.3526	1	20	n/a	n/a	1	n/a	n/a	n/a	n/a	n/a	n/a	n/a	n/a
413.8796	1	80	n/a	n/a	1	n/a	n/a	n/a	n/a	n/a	n/a	n/a	n/a
413.9796	1	80	n/a	n/a	1	n/a	n/a	n/a	n/a	n/a	n/a	n/a	n/a
414.1858	1	31	n/a	n/a	1	n/a	n/a	n/a	n/a	n/a	n/a	n/a	n/a
416.2024	1	10	1955.9	1955.9	1	0	1	0	0	0	0.5	0.5	9
418.169	1	20	n/a	n/a	1	n/a	n/a	n/a	n/a	n/a	n/a	n/a	n/a
419.45	1	80	n/a	n/a	1	n/a	n/a	n/a	n/a	n/a	n/a	n/a	n/a
419.55	1	80	n/a	n/a	1	n/a	n/a	n/a	n/a	n/a	n/a	n/a	n/a
419.7522	1	30	n/a	n/a	1	n/a	n/a	n/a	n/a	n/a	n/a	n/a	n/a
421.7688	1	10	1173.5	1173.5	1	0	1	0	0	0	0.6	0.6	10
422.952	1	20	n/a	n/a	1	n/a	n/a	n/a	n/a	n/a	n/a	n/a	n/a
424.702	1	80	n/a	n/a	1	n/a	n/a	n/a	n/a	n/a	n/a	n/a	n/a
424.802	1	80	n/a	n/a	1	n/a	n/a	n/a	n/a	n/a	n/a	n/a	n/a
425.0186	1	31	n/a	n/a	1	n/a	n/a	n/a	n/a	n/a	n/a	n/a	n/a
436.0512	1	10	1274.6	1274.6	1	0	1	0	0.4	0.42391	0.8	0.94927	11
437.3344	1	20	n/a	n/a	1	n/a	n/a	n/a	n/a	n/a	n/a	n/a	n/a
438.9264	1	80	n/a	n/a	1	n/a	n/a	n/a	n/a	n/a	n/a	n/a	n/a
439.0264	1	80	n/a	n/a	1	n/a	n/a	n/a	n/a	n/a	n/a	n/a	n/a
439.2344	1	30	n/a	n/a	1	n/a	n/a	n/a	n/a	n/a	n/a	n/a	n/a
441.2508	1	40	n/a	n/a	1	n/a	n/a	n/a	n/a	n/a	n/a	n/a	n/a
443.2674	1	10	1018.3	1018.3	1	0	1	0	0.8	0.93059	0.1	0.22237	12
444.3008	1	20	n/a	n/a	1	n/a	n/a	n/a	n/a	n/a	n/a	n/a	n/a
446.1938	1	80	n/a	n/a	1	n/a	n/a	n/a	n/a	n/a	n/a	n/a	n/a
446.2938	1	80	n/a	n/a	1	n/a	n/a	n/a	n/a	n/a	n/a	n/a	n/a
446.5006	1	31	n/a	n/a	1	n/a	n/a	n/a	n/a	n/a	n/a	n/a	n/a
448.5172	1	40	n/a	n/a	1	n/a	n/a	n/a	n/a	n/a	n/a	n/a	n/a
450.5336	1	10	1223.8	1223.8	1	0	1	0	0.8	0.70404	0.4	0.81617	13
451.767	1	20	n/a	n/a	1	n/a	n/a	n/a	n/a	n/a	n/a	n/a	n/a
453.287	1	80	n/a	n/a	1	n/a	n/a	n/a	n/a	n/a	n/a	n/a	n/a
453.387	1	80	n/a	n/a	1	n/a	n/a	n/a	n/a	n/a	n/a	n/a	n/a
453.6002	1	30	n/a	n/a	1	n/a	n/a	n/a	n/a	n/a	n/a	n/a	n/a
455.6168	1	40	n/a	n/a	1	n/a	n/a	n/a	n/a	n/a	n/a	n/a	n/a
457.6332	1	10	988.1	988.1	1	0	1	0	0.4	0.34119	0.3	0.060795	14
458.6332	1	20	n/a	n/a	1	n/a	n/a	n/a	n/a	n/a	n/a	n/a	n/a
460.3972	1	80	n/a	n/a	1	n/a	n/a	n/a	n/a	n/a	n/a	n/a	n/a
460.4972	1	80	n/a	n/a	1	n/a	n/a	n/a	n/a	n/a	n/a	n/a	n/a
460.6998	1	31	n/a	n/a	1	n/a	n/a	n/a	n/a	n/a	n/a	n/a	n/a
462.7162	1	40	n/a	n/a	1	n/a	n/a	n/a	n/a	n/a	n/a	n/a	n/a
464.7328	1	10	1520.4	1520.4	1	0	1	0	0.6	0.85925	0.3	0.53888	15
466.266	1	20	n/a	n/a	1	n/a	n/a	n/a	n/a	n/a	n/a	n/a	n/a
467.354	1	80	n/a	n/a	1	n/a	n/a	n/a	n/a	n/a	n/a	n/a	n/a
467.454	1	80	n/a	n/a	1	n/a	n/a	n/a	n/a	n/a	n/a	n/a	n/a
467.666	1	30	n/a	n/a	1	n/a	n/a	n/a	n/a	n/a	n/a	n/a	n/a
469.6826	1	40	n/a	n/a	1	n/a	n/a	n/a	n/a	n/a	n/a	n/a	n/a
471.699	1	10	1001.9	1001.9	1	0	1	0	0.5	0.6724	0.4	0.4724	16
472.7158	1	20	n/a	n/a	1	n/a	n/a	n/a	n/a	n/a	n/a	n/a	n/a
473.9348	1	80	n/a	n/a	1	n/a	n/a	n/a	n/a	n/a	n/a	n/a	n/a
474.0348	1	80	n/a	n/a	1	n/a	n/a	n/a	n/a	n/a	n/a	n/a	n/a
474.249	1	30	n/a	n/a	1	n/a	n/a	n/a	n/a	n/a	n/a	n/a	n/a
476.2654	1	40	n/a	n/a	1	n/a	n/a	n/a	n/a	n/a	n/a	n/a	n/a
478.282	1	10	1266.9	1266.9	1	0	1	0	0.6	0.20639	0.7	0.55958	17
479.5652	1	20	n/a	n/a	1	n/a	n/a	n/a	n/a	n/a	n/a	n/a	n/a
480.7584	1	80	n/a	n/a	1	n/a	n/a	n/a	n/a	n/a	n/a	n/a	n/a
480.8584	1	80	n/a	n/a	1	n/a	n/a	n/a	n/a	n/a	n/a	n/a	n/a
481.0652	1	30	n/a	n/a	1	n/a	n/a	n/a	n/a	n/a	n/a	n/a	n/a
483.0818	1	40	n/a	n/a	1	n/a	n/a	n/a	n/a	n/a	n/a	n/a	n/a
485.0984	1	10	1570.4	1570.4	1	0	1	0	0.8	0.28717	0.7	0.64868	18
486.6816	1	20	n/a	n/a	1	n/a	n/a	n/a	n/a	n/a	n/a	n/a	n/a
488.6036	1	80	n/a	n/a	1	n/a	n/a	n/a	n/a	n/a	n/a	n/a	n/a
488.7036	1	80	n/a	n/a	1	n/a	n/a	n/a	n/a	n/a	n/a	n/a	n/a
488.9148	1	30	n/a	n/a	1	n/a	n/a	n/a	n/a	n/a	n/a	n/a	n/a
490.9312	1	40	n/a	n/a	1	n/a	n/a	n/a	n/a	n/a	n/a	n/a	n/a
492.9478	1	10	936.7	936.7	1	0	1	0	0.4	0.33877	0.8	0.89251	19
493.8978	1	20	n/a	n/a	1	n/a	n/a	n/a	n/a	n/a	n/a	n/a	n/a
495.8518	1	80	n/a	n/a	1	n/a	n/a	n/a	n/a	n/a	n/a	n/a	n/a
495.9518	1	80	n/a	n/a	1	n/a	n/a	n/a	n/a	n/a	n/a	n/a	n/a
496.1644	1	31	n/a	n/a	1	n/a	n/a	n/a	n/a	n/a	n/a	n/a	n/a
498.1808	1	40	n/a	n/a	1	n/a	n/a	n/a	n/a	n/a	n/a	n/a	n/a
500.1974	1	10	1959	1959	1	0	1	0	0.7	0.79536	0.3	0.52251	20
502.164	1	20	n/a	n/a	1	n/a	n/a	n/a	n/a	n/a	n/a	n/a	n/a
503.656	1	80	n/a	n/a	1	n/a	n/a	n/a	n/a	n/a	n/a	n/a	n/a
503.756	1	80	n/a	n/a	1	n/a	n/a	n/a	n/a	n/a	n/a	n/a	n/a
503.9638	1	31	n/a	n/a	1	n/a	n/a	n/a	n/a	n/a	n/a	n/a	n/a
505.9804	1	40	n/a	n/a	1	n/a	n/a	n/a	n/a	n/a	n/a	n/a	n/a
517.013	1	10	871	871	1	0	1	0	0	0	0.1	0.1	21
517.8964	1	20	n/a	n/a	1	n/a	n/a	n/a	n/a	n/a	n/a	n/a	n/a
519.5814	1	80	n/a	n/a	1	n/a	n/a	n/a	n/a	n/a	n/a	n/a	n/a
519.6814	1	80	n/a	n/a	1	n/a	n/a	n/a	n/a	n/a	n/a	n/a	n/a
519.8962	1	31	n/a	n/a	1	n/a	n/a	n/a	n/a	n/a	n/a	n/a	n/a
521.9128	1	10	1555.1	1555.1	1	0	1	0	0	0	0.9	0.9	22
523.4794	1	20	n/a	n/a	1	n/a	n/a	n/a	n/a	n/a	n/a	n/a	n/a
525.2374	1	80	n/a	n/a	1	n/a	n/a	n/a	n/a	n/a	n/a	n/a	n/a
525.3374	1	80	n/a	n/a	1	n/a	n/a	n/a	n/a	n/a	n/a	n/a	n/a
525.546	1	31	n/a	n/a	1	n/a	n/a	n/a	n/a	n/a	n/a	n/a	n/a
527.5624	1	10	753.4	753.4	1	0	1	0	0	0	0.3	0.3	23
528.329	1	20	n/a	n/a	1	n/a	n/a	n/a	n/a	n/a	n/a	n/a	n/a
530.139	1	80	n/a	n/a	1	n/a	n/a	n/a	n/a	n/a	n/a	n/a	n/a
530.239	1	80	n/a	n/a	1	n/a	n/a	n/a	n/a	n/a	n/a	n/a	n/a
530.4456	1	30	n/a	n/a	1	n/a	n/a	n/a	n/a	n/a	n/a	n/a	n/a
532.4622	1	10	2317.5	2317.5	1	0	1	0	0	0	0.4	0.4	24
534.7954	1	20	n/a	n/a	1	n/a	n/a	n/a	n/a	n/a	n/a	n/a	n/a
536.5744	1	80	n/a	n/a	1	n/a	n/a	n/a	n/a	n/a	n/a	n/a	n/a
536.6744	1	80	n/a	n/a	1	n/a	n/a	n/a	n/a	n/a	n/a	n/a	n/a
536.8786	1	30	n/a	n/a	1	n/a	n/a	n/a	n/a	n/a	n/a	n/a	n/a
538.8952	1	10	668.4	668.4	1	0	1	0	0	0	0.1	0.1	25
539.5784	1	20	n/a	n/a	1	n/a	n/a	n/a	n/a	n/a	n/a	n/a	n/a
540.7714	1	80	n/a	n/a	1	n/a	n/a	n/a	n/a	n/a	n/a	n/a	n/a
540.8714	1	80	n/a	n/a	1	n/a	n/a	n/a	n/a	n/a	n/a	n/a	n/a
541.0784	1	31	n/a	n/a	1	n/a	n/a	n/a	n/a	n/a	n/a	n/a	n/a
543.0948	1	10	2100.5	2100.5	1	0	1	0	0	0	0.4	0.4	26
545.2114	1	20	n/a	n/a	1	n/a	n/a	n/a	n/a	n/a	n/a	n/a	n/a
546.8074	1	80	n/a	n/a	1	n/a	n/a	n/a	n/a	n/a	n/a	n/a	n/a
546.9074	1	80	n/a	n/a	1	n/a	n/a	n/a	n/a	n/a	n/a	n/a	n/a
547.1114	1	30	n/a	n/a	1	n/a	n/a	n/a	n/a	n/a	n/a	n/a	n/a
549.1278	1	10	579.4	579.4	1	0	1	0	0	0	0.1	0.1	27
549.7112	1	20	n/a	n/a	1	n/a	n/a	n/a	n/a	n/a	n/a	n/a	n/a
550.7552	1	80	n/a	n/a	1	n/a	n/a	n/a	n/a	n/a	n/a	n/a	n/a
550.8552	1	80	n/a	n/a	1	n/a	n/a	n/a	n/a	n/a	n/a	n/a	n/a
551.061	1	31	n/a	n/a	1	n/a	n/a	n/a	n/a	n/a	n/a	n/a	n/a
553.0776	1	10	693.6	693.6	1	0	1	0	0	0	0.8	0.8	28
553.7776	1	20	n/a	n/a	1	n/a	n/a	n/a	n/a	n/a	n/a	n/a	n/a
554.8276	1	80	n/a	n/a	1	n/a	n/a	n/a	n/a	n/a	n/a	n/a	n/a
554.9276	1	80	n/a	n/a	1	n/a	n/a	n/a	n/a	n/a	n/a	n/a	n/a
555.1442	1	31	n/a	n/a	1	n/a	n/a	n/a	n/a	n/a	n/a	n/a	n/a
557.1608	1	10	578.4	578.4	1	0	1	0	0	0	0.1	0.1	29
557.744	1	20	n/a	n/a	1	n/a	n/a	n/a	n/a	n/a	n/a	n/a	n/a
559.654	1	80	n/a	n/a	1	n/a	n/a	n/a	n/a	n/a	n/a	n/a	n/a
559.754	1	80	n/a	n/a	1	n/a	n/a	n/a	n/a	n/a	n/a	n/a	n/a
559.9606	1	31	n/a	n/a	1	n/a	n/a	n/a	n/a	n/a	n/a	n/a	n/a
561.977	1	10	673.9	673.9	1	0	1	0	0	0	0.1	0.1	30
562.6604	1	20	n/a	n/a	1	n/a	n/a	n/a	n/a	n/a	n/a	n/a	n/a
563.8574	1	80	n/a	n/a	1	n/a	n/a	n/a	n/a	n/a	n/a	n/a	n/a
563.9574	1	80	n/a	n/a	1	n/a	n/a	n/a	n/a	n/a	n/a	n/a	n/a
564.1602	1	31	n/a	n/a	1	n/a	n/a	n/a	n/a	n/a	n/a	n/a	n/a
575.193	1	10	2369.7	2369.7	1	0	1	0	0.8	0.53893	0.1	0.0625	31
577.5762	1	20	n/a	n/a	1	n/a	n/a	n/a	n/a	n/a	n/a	n/a	n/a
579.4042	1	80	n/a	n/a	1	n/a	n/a	n/a	n/a	n/a	n/a	n/a	n/a
579.5042	1	80	n/a	n/a	1	n/a	n/a	n/a	n/a	n/a	n/a	n/a	n/a
579.7094	1	30	n/a	n/a	1	n/a	n/a	n/a	n/a	n/a	n/a	n/a	n/a
581.726	1	40	n/a	n/a	1	n/a	n/a	n/a	n/a	n/a	n/a	n/a	n/a
583.7424	1	10	1516	1516	1	0	1	0	0.7	0.20459	0.7	0.47739	32
585.2758	1	20	n/a	n/a	1	n/a	n/a	n/a	n/a	n/a	n/a	n/a	n/a
587.2048	1	80	n/a	n/a	1	n/a	n/a	n/a	n/a	n/a	n/a	n/a	n/a
587.3048	1	80	n/a	n/a	1	n/a	n/a	n/a	n/a	n/a	n/a	n/a	n/a
587.509	1	31	n/a	n/a	1	n/a	n/a	n/a	n/a	n/a	n/a	n/a	n/a
589.5254	1	40	n/a	n/a	1	n/a	n/a	n/a	n/a	n/a	n/a	n/a	n/a
591.542	1	10	2004.3	2004.3	1	0	1	0	0.7	0.20183	0.8	0.80427	33
593.5586	1	20	n/a	n/a	1	n/a	n/a	n/a	n/a	n/a	n/a	n/a	n/a
594.6596	1	80	n/a	n/a	1	n/a	n/a	n/a	n/a	n/a	n/a	n/a	n/a
594.7596	1	80	n/a	n/a	1	n/a	n/a	n/a	n/a	n/a	n/a	n/a	n/a
594.9752	1	31	n/a	n/a	1	n/a	n/a	n/a	n/a	n/a	n/a	n/a	n/a
596.9916	1	40	n/a	n/a	1	n/a	n/a	n/a	n/a	n/a	n/a	n/a	n/a
599.0082	1	10	1689.9	1689.9	1	0	1	0	0.6	0.15544	0.6	0.23316	34
600.7082	1	20	n/a	n/a	1	n/a	n/a	n/a	n/a	n/a	n/a	n/a	n/a
601.7242	1	80	n/a	n/a	1	n/a	n/a	n/a	n/a	n/a	n/a	n/a	n/a
601.8242	1	80	n/a	n/a	1	n/a	n/a	n/a	n/a	n/a	n/a	n/a	n/a
602.0414	1	31	n/a	n/a	1	n/a	n/a	n/a	n/a	n/a	n/a	n/a	n/a
604.058	1	40	n/a	n/a	1	n/a	n/a	n/a	n/a	n/a	n/a	n/a	n/a
606.0744	1	10	2463.4	2463.4	1	0	1	0	0.6	0.94636	0.2	0.41954	35
608.541	1	20	n/a	n/a	1	n/a	n/a	n/a	n/a	n/a	n/a	n/a	n/a
609.641	1	80	n/a	n/a	1	n/a	n/a	n/a	n/a	n/a	n/a	n/a	n/a
609.741	1	80	n/a	n/a	1	n/a	n/a	n/a	n/a	n/a	n/a	n/a	n/a
609.9576	1	30	n/a	n/a	1	n/a	n/a	n/a	n/a	n/a	n/a	n/a	n/a
611.9742	1	40	n/a	n/a	1	n/a	n/a	n/a	n/a	n/a	n/a	n/a	n/a
613.9906	1	10	883.1	883.1	1	0	1	0	0.7	0.67428	0.4	0.57331	36
614.8906	1	20	n/a	n/a	1	n/a	n/a	n/a	n/a	n/a	n/a	n/a	n/a
616.6996	1	80	n/a	n/a	1	n/a	n/a	n/a	n/a	n/a	n/a	n/a	n/a
616.7996	1	80	n/a	n/a	1	n/a	n/a	n/a	n/a	n/a	n/a	n/a	n/a
617.0072	1	30	n/a	n/a	1	n/a	n/a	n/a	n/a	n/a	n/a	n/a	n/a
619.0238	1	40	n/a	n/a	1	n/a	n/a	n/a	n/a	n/a	n/a	n/a	n/a
621.0402	1	10	1897.3	1897.3	1	0	1	0	0.4	0.30372	0.6	0.53581	37
622.9402	1	20	n/a	n/a	1	n/a	n/a	n/a	n/a	n/a	n/a	n/a	n/a
624.1432	1	80	n/a	n/a	1	n/a	n/a	n/a	n/a	n/a	n/a	n/a	n/a
624.2432	1	80	n/a	n/a	1	n/a	n/a	n/a	n/a	n/a	n/a	n/a	n/a
624.4568	1	30	n/a	n/a	1	n/a	n/a	n/a	n/a	n/a	n/a	n/a	n/a
626.4732	1	40	n/a	n/a	1	n/a	n/a	n/a	n/a	n/a	n/a	n/a	n/a
628.4898	1	10	1407.7	1407.7	1	0	1	0	0.8	0.16281	0.6	0.0625	38
629.9064	1	20	n/a	n/a	1	n/a	n/a	n/a	n/a	n/a	n/a	n/a	n/a
631.0464	1	80	n/a	n/a	1	n/a	n/a	n/a	n/a	n/a	n/a	n/a	n/a
631.1464	1	80	n/a	n/a	1	n/a	n/a	n/a	n/a	n/a	n/a	n/a	n/a
631.3564	1	30	n/a	n/a	1	n/a	n/a	n/a	n/a	n/a	n/a	n/a	n/a
633.3728	1	40	n/a	n/a	1	n/a	n/a	n/a	n/a	n/a	n/a	n/a	n/a
635.3894	1	10	2523.9	2523.9	1	0	1	0	0.5	0.22706	0.5	0.22706	39
637.9226	1	20	n/a	n/a	1	n/a	n/a	n/a	n/a	n/a	n/a	n/a	n/a
639.3716	1	80	n/a	n/a	1	n/a	n/a	n/a	n/a	n/a	n/a	n/a	n/a
639.4716	1	80	n/a	n/a	1	n/a	n/a	n/a	n/a	n/a	n/a	n/a	n/a
639.6892	1	31	n/a	n/a	1	n/a	n/a	n/a	n/a	n/a	n/a	n/a	n/a
641.7058	1	40	n/a	n/a	1	n/a	n/a	n/a	n/a	n/a	n/a	n/a	n/a
643.7222	1	10	1006.9	1006.9	1	0	1	0	0.6	0.64355	0.3	0.21532	40
644.7388	1	20	n/a	n/a	1	n/a	n/a	n/a	n/a	n/a	n/a	n/a	n/a
646.1818	1	80	n/a	n/a	1	n/a	n/a	n/a	n/a	n/a	n/a	n/a	n/a
646.2818	1	80	n/a	n/a	1	n/a	n/a	n/a	n/a	n/a	n/a	n/a	n/a
646.4888	1	31	n/a	n/a	1	n/a	n/a	n/a	n/a	n/a	n/a	n/a	n/a
648.5054	1	40	n/a	n/a	1	n/a	n/a	n/a	n/a	n/a	n/a	n/a	n/a
756.9822	1	10	1968.3	1968.3	1	1	0	0	0	0	0.1	0.1	1
758.9654	1	20	n/a	n/a	1	n/a	n/a	n/a	n/a	n/a	n/a	n/a	n/a
760.3644	1	80	n/a	n/a	1	n/a	n/a	n/a	n/a	n/a	n/a	n/a	n/a
760.4644	1	80	n/a	n/a	1	n/a	n/a	n/a	n/a	n/a	n/a	n/a	n/a
760.682	1	31	n/a	n/a	1	n/a	n/a	n/a	n/a	n/a	n/a	n/a	n/a
762.6986	1	10	779.8	779.8	1	1	0	0	0	0	0.6	0.6	2
763.4818	1	20	n/a	n/a	1	n/a	n/a	n/a	n/a	n/a	n/a	n/a	n/a
765.3058	1	80	n/a	n/a	1	n/a	n/a	n/a	n/a	n/a	n/a	n/a	n/a
765.4058	1	80	n/a	n/a	1	n/a	n/a	n/a	n/a	n/a	n/a	n/a	n/a
765.615	1	31	n/a	n/a	1	n/a	n/a	n/a	n/a	n/a	n/a	n/a	n/a
767.6316	1	10	854.7	854.7	1	1	0	0	0	0	0.6	0.6	3
768.4982	1	20	n/a	n/a	1	n/a	n/a	n/a	n/a	n/a	n/a	n/a	n/a
769.7132	1	80	n/a	n/a	1	n/a	n/a	n/a	n/a	n/a	n/a	n/a	n/a
769.8132	1	80	n/a	n/a	1	n/a	n/a	n/a	n/a	n/a	n/a	n/a	n/a
770.0148	1	31	n/a	n/a	1	n/a	n/a	n/a	n/a	n/a	n/a	n/a	n/a
772.0314	1	10	966.9	966.9	1	1	0	0	0	0	0.2	0.2	4
773.0146	1	20	n/a	n/a	1	n/a	n/a	n/a	n/a	n/a	n/a	n/a	n/a
774.4776	1	80	n/a	n/a	1	n/a	n/a	n/a	n/a	n/a	n/a	n/a	n/a
774.5776	1	80	n/a	n/a	1	n/a	n/a	n/a	n/a	n/a	n/a	n/a	n/a
774.7812	1	30	n/a	n/a	1	n/a	n/a	n/a	n/a	n/a	n/a	n/a	n/a
776.7978	1	10	1176.4	1176.4	1	1	0	0	0	0	0.1	0.1	5
777.981	1	20	n/a	n/a	1	n/a	n/a	n/a	n/a	n/a	n/a	n/a	n/a
779.256	1	80	n/a	n/a	1	n/a	n/a	n/a	n/a	n/a	n/a	n/a	n/a
779.356	1	80	n/a	n/a	1	n/a	n/a	n/a	n/a	n/a	n/a	n/a	n/a
779.5642	1	31	n/a	n/a	1	n/a	n/a	n/a	n/a	n/a	n/a	n/a	n/a
781.5808	1	10	1033.2	1033.2	1	1	0	0	0	0	0.4	0.4	6
782.6308	1	20	n/a	n/a	1	n/a	n/a	n/a	n/a	n/a	n/a	n/a	n/a
784.6228	1	80	n/a	n/a	1	n/a	n/a	n/a	n/a	n/a	n/a	n/a	n/a
784.7228	1	80	n/a	n/a	1	n/a	n/a	n/a	n/a	n/a	n/a	n/a	n/a
784.9306	1	31	n/a	n/a	1	n/a	n/a	n/a	n/a	n/a	n/a	n/a	n/a
786.9472	1	10	2498.7	2498.7	1	1	0	0	0	0	0.5	0.5	7
789.4636	1	20	n/a	n/a	1	n/a	n/a	n/a	n/a	n/a	n/a	n/a	n/a
791.0566	1	80	n/a	n/a	1	n/a	n/a	n/a	n/a	n/a	n/a	n/a	n/a
791.1566	1	80	n/a	n/a	1	n/a	n/a	n/a	n/a	n/a	n/a	n/a	n/a
791.3636	1	31	n/a	n/a	1	n/a	n/a	n/a	n/a	n/a	n/a	n/a	n/a
793.3802	1	10	1025.7	1025.7	1	1	0	0	0	0	0.3	0.3	8
794.4134	1	20	n/a	n/a	1	n/a	n/a	n/a	n/a	n/a	n/a	n/a	n/a
796.0424	1	80	n/a	n/a	1	n/a	n/a	n/a	n/a	n/a	n/a	n/a	n/a
796.1424	1	80	n/a	n/a	1	n/a	n/a	n/a	n/a	n/a	n/a	n/a	n/a
796.3466	1	31	n/a	n/a	1	n/a	n/a	n/a	n/a	n/a	n/a	n/a	n/a
798.3632	1	10	554.5	554.5	1	1	0	0	0	0	0.1	0.1	9
798.9298	1	20	n/a	n/a	1	n/a	n/a	n/a	n/a	n/a	n/a	n/a	n/a
800.1478	1	80	n/a	n/a	1	n/a	n/a	n/a	n/a	n/a	n/a	n/a	n/a
800.2478	1	80	n/a	n/a	1	n/a	n/a	n/a	n/a	n/a	n/a	n/a	n/a
800.463	1	31	n/a	n/a	1	n/a	n/a	n/a	n/a	n/a	n/a	n/a	n/a
802.4796	1	10	710	710	1	1	0	0	0	0	0.3	0.3	10
803.1962	1	20	n/a	n/a	1	n/a	n/a	n/a	n/a	n/a	n/a	n/a	n/a
804.2522	1	80	n/a	n/a	1	n/a	n/a	n/a	n/a	n/a	n/a	n/a	n/a
804.3522	1	80	n/a	n/a	1	n/a	n/a	n/a	n/a	n/a	n/a	n/a	n/a
804.5628	1	30	n/a	n/a	1	n/a	n/a	n/a	n/a	n/a	n/a	n/a	n/a
815.5954	1	10	2585.8	2585.8	1	1	0	0	0.5	0.60453	0.5	0.60453	11
818.1954	1	20	n/a	n/a	1	n/a	n/a	n/a	n/a	n/a	n/a	n/a	n/a
819.6154	1	80	n/a	n/a	1	n/a	n/a	n/a	n/a	n/a	n/a	n/a	n/a
819.7154	1	80	n/a	n/a	1	n/a	n/a	n/a	n/a	n/a	n/a	n/a	n/a
819.9286	1	30	n/a	n/a	1	n/a	n/a	n/a	n/a	n/a	n/a	n/a	n/a
821.945	1	40	n/a	n/a	1	n/a	n/a	n/a	n/a	n/a	n/a	n/a	n/a
823.9616	1	10	843.4	843.4	1	1	0	0	0.5	0.92315	0.1	0.12315	12
824.8116	1	20	n/a	n/a	1	n/a	n/a	n/a	n/a	n/a	n/a	n/a	n/a
825.9116	1	80	n/a	n/a	1	n/a	n/a	n/a	n/a	n/a	n/a	n/a	n/a
826.0116	1	80	n/a	n/a	1	n/a	n/a	n/a	n/a	n/a	n/a	n/a	n/a
826.2282	1	31	n/a	n/a	1	n/a	n/a	n/a	n/a	n/a	n/a	n/a	n/a
828.2448	1	40	n/a	n/a	1	n/a	n/a	n/a	n/a	n/a	n/a	n/a	n/a
830.2612	1	10	1535.7	1535.7	1	1	0	0	0.8	0.40967	0.6	0.63868	13
831.8112	1	20	n/a	n/a	1	n/a	n/a	n/a	n/a	n/a	n/a	n/a	n/a
833.3542	1	80	n/a	n/a	1	n/a	n/a	n/a	n/a	n/a	n/a	n/a	n/a
833.4542	1	80	n/a	n/a	1	n/a	n/a	n/a	n/a	n/a	n/a	n/a	n/a
833.661	1	30	n/a	n/a	1	n/a	n/a	n/a	n/a	n/a	n/a	n/a	n/a
835.6776	1	40	n/a	n/a	1	n/a	n/a	n/a	n/a	n/a	n/a	n/a	n/a
837.6942	1	10	1638.6	1638.6	1	1	0	0	0.5	0.024786	0.9	0.82479	14
839.344	1	20	n/a	n/a	1	n/a	n/a	n/a	n/a	n/a	n/a	n/a	n/a
840.917	1	80	n/a	n/a	1	n/a	n/a	n/a	n/a	n/a	n/a	n/a	n/a
841.017	1	80	n/a	n/a	1	n/a	n/a	n/a	n/a	n/a	n/a	n/a	n/a
841.2272	1	31	n/a	n/a	1	n/a	n/a	n/a	n/a	n/a	n/a	n/a	n/a
843.2438	1	40	n/a	n/a	1	n/a	n/a	n/a	n/a	n/a	n/a	n/a	n/a
845.2604	1	10	1784.1	1784.1	1	1	0	0	0.5	0.92932	0.4	0.72932	15
847.0602	1	20	n/a	n/a	1	n/a	n/a	n/a	n/a	n/a	n/a	n/a	n/a
848.9562	1	80	n/a	n/a	1	n/a	n/a	n/a	n/a	n/a	n/a	n/a	n/a
849.0562	1	80	n/a	n/a	1	n/a	n/a	n/a	n/a	n/a	n/a	n/a	n/a
849.2602	1	30	n/a	n/a	1	n/a	n/a	n/a	n/a	n/a	n/a	n/a	n/a
851.2766	1	40	n/a	n/a	1	n/a	n/a	n/a	n/a	n/a	n/a	n/a	n/a
853.2932	1	10	1639.3	1639.3	1	1	0	0	0.6	0.46519	0.5	0.44779	16
854.9432	1	20	n/a	n/a	1	n/a	n/a	n/a	n/a	n/a	n/a	n/a	n/a
856.4012	1	80	n/a	n/a	1	n/a	n/a	n/a	n/a	n/a	n/a	n/a	n/a
856.5012	1	80	n/a	n/a	1	n/a	n/a	n/a	n/a	n/a	n/a	n/a	n/a
856.7096	1	31	n/a	n/a	1	n/a	n/a	n/a	n/a	n/a	n/a	n/a	n/a
858.7262	1	40	n/a	n/a	1	n/a	n/a	n/a	n/a	n/a	n/a	n/a	n/a
860.7428	1	10	1661.4	1661.4	1	1	0	0	0.6	0.98294	0.1	0.22441	17
862.4094	1	20	n/a	n/a	1	n/a	n/a	n/a	n/a	n/a	n/a	n/a	n/a
863.7744	1	80	n/a	n/a	1	n/a	n/a	n/a	n/a	n/a	n/a	n/a	n/a
863.8744	1	80	n/a	n/a	1	n/a	n/a	n/a	n/a	n/a	n/a	n/a	n/a
864.076	1	31	n/a	n/a	1	n/a	n/a	n/a	n/a	n/a	n/a	n/a	n/a
866.0924	1	40	n/a	n/a	1	n/a	n/a	n/a	n/a	n/a	n/a	n/a	n/a
868.109	1	10	727.1	727.1	1	1	0	0	0.5	0.44587	0.9	0.975	18
868.8424	1	20	n/a	n/a	1	n/a	n/a	n/a	n/a	n/a	n/a	n/a	n/a
870.7234	1	80	n/a	n/a	1	n/a	n/a	n/a	n/a	n/a	n/a	n/a	n/a
870.8234	1	80	n/a	n/a	1	n/a	n/a	n/a	n/a	n/a	n/a	n/a	n/a
871.0256	1	31	n/a	n/a	1	n/a	n/a	n/a	n/a	n/a	n/a	n/a	n/a
873.042	1	40	n/a	n/a	1	n/a	n/a	n/a	n/a	n/a	n/a	n/a	n/a
875.0586	1	10	737.3	737.3	1	1	0	0	0.6	0.33184	0.7	0.74776	19
875.8086	1	20	n/a	n/a	1	n/a	n/a	n/a	n/a	n/a	n/a	n/a	n/a
877.7756	1	80	n/a	n/a	1	n/a	n/a	n/a	n/a	n/a	n/a	n/a	n/a
877.8756	1	80	n/a	n/a	1	n/a	n/a	n/a	n/a	n/a	n/a	n/a	n/a
878.0918	1	30	n/a	n/a	1	n/a	n/a	n/a	n/a	n/a	n/a	n/a	n/a
880.1084	1	40	n/a	n/a	1	n/a	n/a	n/a	n/a	n/a	n/a	n/a	n/a
882.1248	1	10	1174.9	1174.9	1	1	0	0	0.6	0.90241	0.1	0.10361	20
883.3082	1	20	n/a	n/a	1	n/a	n/a	n/a	n/a	n/a	n/a	n/a	n/a
884.4862	1	80	n/a	n/a	1	n/a	n/a	n/a	n/a	n/a	n/a	n/a	n/a
884.5862	1	80	n/a	n/a	1	n/a	n/a	n/a	n/a	n/a	n/a	n/a	n/a
884.7914	1	31	n/a	n/a	1	n/a	n/a	n/a	n/a	n/a	n/a	n/a	n/a
886.808	1	40	n/a	n/a	1	n/a	n/a	n/a	n/a	n/a	n/a	n/a	n/a
897.8406	1	10	690.8	690.8	1	1	0	0	0	0	0.1	0.1	21
898.5406	1	20	n/a	n/a	1	n/a	n/a	n/a	n/a	n/a	n/a	n/a	n/a
900.0136	1	80	n/a	n/a	1	n/a	n/a	n/a	n/a	n/a	n/a	n/a	n/a
900.1136	1	80	n/a	n/a	1	n/a	n/a	n/a	n/a	n/a	n/a	n/a	n/a
900.3238	1	31	n/a	n/a	1	n/a	n/a	n/a	n/a	n/a	n/a	n/a	n/a
902.3404	1	10	1054.9	1054.9	1	1	0	0	0	0	0.3	0.3	22
903.407	1	20	n/a	n/a	1	n/a	n/a	n/a	n/a	n/a	n/a	n/a	n/a
904.913	1	80	n/a	n/a	1	n/a	n/a	n/a	n/a	n/a	n/a	n/a	n/a
905.013	1	80	n/a	n/a	1	n/a	n/a	n/a	n/a	n/a	n/a	n/a	n/a
905.2234	1	30	n/a	n/a	1	n/a	n/a	n/a	n/a	n/a	n/a	n/a	n/a
907.24	1	10	1163.1	1163.1	1	1	0	0	0	0	0.5	0.5	23
908.4066	1	20	n/a	n/a	1	n/a	n/a	n/a	n/a	n/a	n/a	n/a	n/a
910.1156	1	80	n/a	n/a	1	n/a	n/a	n/a	n/a	n/a	n/a	n/a	n/a
910.2156	1	80	n/a	n/a	1	n/a	n/a	n/a	n/a	n/a	n/a	n/a	n/a
910.4232	1	31	n/a	n/a	1	n/a	n/a	n/a	n/a	n/a	n/a	n/a	n/a
912.4398	1	10	571.3	571.3	1	1	0	0	0	0	0.4	0.4	24
913.023	1	20	n/a	n/a	1	n/a	n/a	n/a	n/a	n/a	n/a	n/a	n/a
914.595	1	80	n/a	n/a	1	n/a	n/a	n/a	n/a	n/a	n/a	n/a	n/a
914.695	1	80	n/a	n/a	1	n/a	n/a	n/a	n/a	n/a	n/a	n/a	n/a
914.9062	1	30	n/a	n/a	1	n/a	n/a	n/a	n/a	n/a	n/a	n/a	n/a
916.9228	1	10	1096.1	1096.1	1	1	0	0	0	0	0.6	0.6	25
918.0228	1	20	n/a	n/a	1	n/a	n/a	n/a	n/a	n/a	n/a	n/a	n/a
919.1818	1	80	n/a	n/a	1	n/a	n/a	n/a	n/a	n/a	n/a	n/a	n/a
919.2818	1	80	n/a	n/a	1	n/a	n/a	n/a	n/a	n/a	n/a	n/a	n/a
919.4894	1	31	n/a	n/a	1	n/a	n/a	n/a	n/a	n/a	n/a	n/a	n/a
921.5058	1	10	705	705	1	1	0	0	0	0	0.1	0.1	26
922.2224	1	20	n/a	n/a	1	n/a	n/a	n/a	n/a	n/a	n/a	n/a	n/a
923.3776	1	80	n/a	n/a	1	n/a	n/a	n/a	n/a	n/a	n/a	n/a	n/a
923.4776	1	80	n/a	n/a	1	n/a	n/a	n/a	n/a	n/a	n/a	n/a	n/a
923.689	1	31	n/a	n/a	1	n/a	n/a	n/a	n/a	n/a	n/a	n/a	n/a
925.7056	1	10	617.1	617.1	1	1	0	0	0	0	0.9	0.9	27
926.339	1	20	n/a	n/a	1	n/a	n/a	n/a	n/a	n/a	n/a	n/a	n/a
927.974	1	80	n/a	n/a	1	n/a	n/a	n/a	n/a	n/a	n/a	n/a	n/a
928.074	1	80	n/a	n/a	1	n/a	n/a	n/a	n/a	n/a	n/a	n/a	n/a
928.2888	1	31	n/a	n/a	1	n/a	n/a	n/a	n/a	n/a	n/a	n/a	n/a
930.3054	1	10	593.4	593.4	1	1	0	0	0	0	0.2	0.2	28
930.9054	1	20	n/a	n/a	1	n/a	n/a	n/a	n/a	n/a	n/a	n/a	n/a
932.5004	1	80	n/a	n/a	1	n/a	n/a	n/a	n/a	n/a	n/a	n/a	n/a
932.6004	1	80	n/a	n/a	1	n/a	n/a	n/a	n/a	n/a	n/a	n/a	n/a
932.8052	1	31	n/a	n/a	1	n/a	n/a	n/a	n/a	n/a	n/a	n/a	n/a
934.8218	1	10	572.9	572.9	1	1	0	0	0	0	0.7	0.7	29
935.405	1	20	n/a	n/a	1	n/a	n/a	n/a	n/a	n/a	n/a	n/a	n/a
936.522	1	80	n/a	n/a	1	n/a	n/a	n/a	n/a	n/a	n/a	n/a	n/a
936.622	1	80	n/a	n/a	1	n/a	n/a	n/a	n/a	n/a	n/a	n/a	n/a
936.8382	1	31	n/a	n/a	1	n/a	n/a	n/a	n/a	n/a	n/a	n/a	n/a
938.8548	1	10	651.7	651.7	1	1	0	0	0	0	0.9	0.9	30
939.5214	1	20	n/a	n/a	1	n/a	n/a	n/a	n/a	n/a	n/a	n/a	n/a
941.4534	1	80	n/a	n/a	1	n/a	n/a	n/a	n/a	n/a	n/a	n/a	n/a
941.5534	1	80	n/a	n/a	1	n/a	n/a	n/a	n/a	n/a	n/a	n/a	n/a
941.7714	1	31	n/a	n/a	1	n/a	n/a	n/a	n/a	n/a	n/a	n/a	n/a
952.804	1	10	814.2	814.2	1	1	0	0	0.5	0.34322	0.1	0.025	31
953.6206	1	20	n/a	n/a	1	n/a	n/a	n/a	n/a	n/a	n/a	n/a	n/a
955.2106	1	80	n/a	n/a	1	n/a	n/a	n/a	n/a	n/a	n/a	n/a	n/a
955.3106	1	80	n/a	n/a	1	n/a	n/a	n/a	n/a	n/a	n/a	n/a	n/a
955.5206	1	30	n/a	n/a	1	n/a	n/a	n/a	n/a	n/a	n/a	n/a	n/a
957.537	1	40	n/a	n/a	1	n/a	n/a	n/a	n/a	n/a	n/a	n/a	n/a
959.5536	1	10	480.3	480.3	1	1	0	0	0.7	0.53683	0.5	0.58593	32
960.037	1	20	n/a	n/a	1	n/a	n/a	n/a	n/a	n/a	n/a	n/a	n/a
961.07	1	80	n/a	n/a	1	n/a	n/a	n/a	n/a	n/a	n/a	n/a	n/a
961.17	1	80	n/a	n/a	1	n/a	n/a	n/a	n/a	n/a	n/a	n/a	n/a
961.3868	1	30	n/a	n/a	1	n/a	n/a	n/a	n/a	n/a	n/a	n/a	n/a
963.4034	1	40	n/a	n/a	1	n/a	n/a	n/a	n/a	n/a	n/a	n/a	n/a
965.42	1	10	1413.9	1413.9	1	1	0	0	0.5	0.08574	0.8	0.68574	33
966.8366	1	20	n/a	n/a	1	n/a	n/a	n/a	n/a	n/a	n/a	n/a	n/a
967.8766	1	80	n/a	n/a	1	n/a	n/a	n/a	n/a	n/a	n/a	n/a	n/a
967.9766	1	80	n/a	n/a	1	n/a	n/a	n/a	n/a	n/a	n/a	n/a	n/a
968.1864	1	31	n/a	n/a	1	n/a	n/a	n/a	n/a	n/a	n/a	n/a	n/a
970.203	1	40	n/a	n/a	1	n/a	n/a	n/a	n/a	n/a	n/a	n/a	n/a
972.2196	1	10	870.1	870.1	1	1	0	0	0.7	0.48017	0.4	0.12039	34
973.1028	1	20	n/a	n/a	1	n/a	n/a	n/a	n/a	n/a	n/a	n/a	n/a
974.1458	1	80	n/a	n/a	1	n/a	n/a	n/a	n/a	n/a	n/a	n/a	n/a
974.2458	1	80	n/a	n/a	1	n/a	n/a	n/a	n/a	n/a	n/a	n/a	n/a
974.4528	1	31	n/a	n/a	1	n/a	n/a	n/a	n/a	n/a	n/a	n/a	n/a
976.4692	1	40	n/a	n/a	1	n/a	n/a	n/a	n/a	n/a	n/a	n/a	n/a
978.4858	1	10	907.7	907.7	1	1	0	0	0.8	0.82712	0.1	0.0625	35
979.4024	1	20	n/a	n/a	1	n/a	n/a	n/a	n/a	n/a	n/a	n/a	n/a
980.7614	1	80	n/a	n/a	1	n/a	n/a	n/a	n/a	n/a	n/a	n/a	n/a
980.8614	1	80	n/a	n/a	1	n/a	n/a	n/a	n/a	n/a	n/a	n/a	n/a
981.069	1	31	n/a	n/a	1	n/a	n/a	n/a	n/a	n/a	n/a	n/a	n/a
983.0856	1	40	n/a	n/a	1	n/a	n/a	n/a	n/a	n/a	n/a	n/a	n/a
985.1022	1	10	1731.3	1731.3	1	1	0	0	0.5	0.94137	0.1	0.14137	36
986.852	1	20	n/a	n/a	1	n/a	n/a	n/a	n/a	n/a	n/a	n/a	n/a
988.71	1	80	n/a	n/a	1	n/a	n/a	n/a	n/a	n/a	n/a	n/a	n/a
988.81	1	80	n/a	n/a	1	n/a	n/a	n/a	n/a	n/a	n/a	n/a	n/a
989.0186	1	30	n/a	n/a	1	n/a	n/a	n/a	n/a	n/a	n/a	n/a	n/a
991.035	1	40	n/a	n/a	1	n/a	n/a	n/a	n/a	n/a	n/a	n/a	n/a
993.0516	1	10	661.6	661.6	1	1	0	0	0.8	0.78369	0.1	0.0625	37
993.7182	1	20	n/a	n/a	1	n/a	n/a	n/a	n/a	n/a	n/a	n/a	n/a
994.9552	1	80	n/a	n/a	1	n/a	n/a	n/a	n/a	n/a	n/a	n/a	n/a
995.0552	1	80	n/a	n/a	1	n/a	n/a	n/a	n/a	n/a	n/a	n/a	n/a
995.2682	1	31	n/a	n/a	1	n/a	n/a	n/a	n/a	n/a	n/a	n/a	n/a
997.2848	1	40	n/a	n/a	1	n/a	n/a	n/a	n/a	n/a	n/a	n/a	n/a
999.3012	1	10	1499.8	1499.8	1	1	0	0	0.8	0.11775	0.8	0.47102	38
1000.8178	1	20	n/a	n/a	1	n/a	n/a	n/a	n/a	n/a	n/a	n/a	n/a
1002.3608	1	80	n/a	n/a	1	n/a	n/a	n/a	n/a	n/a	n/a	n/a	n/a
1002.4608	1	80	n/a	n/a	1	n/a	n/a	n/a	n/a	n/a	n/a	n/a	n/a
1002.6678	1	31	n/a	n/a	1	n/a	n/a	n/a	n/a	n/a	n/a	n/a	n/a
1004.6842	1	40	n/a	n/a	1	n/a	n/a	n/a	n/a	n/a	n/a	n/a	n/a
1006.7008	1	10	852.1	852.1	1	1	0	0	0.6	0.92363	0.3	0.63545	39
1007.5674	1	20	n/a	n/a	1	n/a	n/a	n/a	n/a	n/a	n/a	n/a	n/a
1008.9884	1	80	n/a	n/a	1	n/a	n/a	n/a	n/a	n/a	n/a	n/a	n/a
1009.0884	1	80	n/a	n/a	1	n/a	n/a	n/a	n/a	n/a	n/a	n/a	n/a
1009.3006	1	31	n/a	n/a	1	n/a	n/a	n/a	n/a	n/a	n/a	n/a	n/a
1011.3172	1	40	n/a	n/a	1	n/a	n/a	n/a	n/a	n/a	n/a	n/a	n/a
1013.3338	1	10	2490.9	2490.9	1	1	0	0	0.7	0.057487	0.9	0.8008	40
1015.8336	1	20	n/a	n/a	1	n/a	n/a	n/a	n/a	n/a	n/a	n/a	n/a
1017.4986	1	80	n/a	n/a	1	n/a	n/a	n/a	n/a	n/a	n/a	n/a	n/a
1017.5986	1	80	n/a	n/a	1	n/a	n/a	n/a	n/a	n/a	n/a	n/a	n/a
1017.8002	1	30	n/a	n/a	1	n/a	n/a	n/a	n/a	n/a	n/a	n/a	n/a
1019.8168	1	40	n/a	n/a	1	n/a	n/a	n/a	n/a	n/a	n/a	n/a	n/a
1075.7986	1	10	993.6	993.6	1	1	0	0	0	0	0.1	0.1	1
1076.7986	1	20	n/a	n/a	1	n/a	n/a	n/a	n/a	n/a	n/a	n/a	n/a
1078.6706	1	80	n/a	n/a	1	n/a	n/a	n/a	n/a	n/a	n/a	n/a	n/a
1078.7706	1	80	n/a	n/a	1	n/a	n/a	n/a	n/a	n/a	n/a	n/a	n/a
1078.982	1	31	n/a	n/a	1	n/a	n/a	n/a	n/a	n/a	n/a	n/a	n/a
1080.9984	1	10	721.8	721.8	1	1	0	0	0	0	0.8	0.8	2
1081.7316	1	20	n/a	n/a	1	n/a	n/a	n/a	n/a	n/a	n/a	n/a	n/a
1082.8106	1	80	n/a	n/a	1	n/a	n/a	n/a	n/a	n/a	n/a	n/a	n/a
1082.9106	1	80	n/a	n/a	1	n/a	n/a	n/a	n/a	n/a	n/a	n/a	n/a
1083.1148	1	31	n/a	n/a	1	n/a	n/a	n/a	n/a	n/a	n/a	n/a	n/a
1085.1314	1	10	540.6	540.6	1	1	0	0	0	0	0.3	0.3	3
1085.6814	1	20	n/a	n/a	1	n/a	n/a	n/a	n/a	n/a	n/a	n/a	n/a
1086.9814	1	80	n/a	n/a	1	n/a	n/a	n/a	n/a	n/a	n/a	n/a	n/a
1087.0814	1	80	n/a	n/a	1	n/a	n/a	n/a	n/a	n/a	n/a	n/a	n/a
1087.298	1	30	n/a	n/a	1	n/a	n/a	n/a	n/a	n/a	n/a	n/a	n/a
1089.3146	1	10	2549.4	2549.4	1	1	0	0	0	0	0.8	0.8	4
1091.881	1	20	n/a	n/a	1	n/a	n/a	n/a	n/a	n/a	n/a	n/a	n/a
1093.379	1	80	n/a	n/a	1	n/a	n/a	n/a	n/a	n/a	n/a	n/a	n/a
1093.479	1	80	n/a	n/a	1	n/a	n/a	n/a	n/a	n/a	n/a	n/a	n/a
1093.681	1	31	n/a	n/a	1	n/a	n/a	n/a	n/a	n/a	n/a	n/a	n/a
1095.6974	1	10	422.3	422.3	1	1	0	0	0	0	0.1	0.1	5
1096.1308	1	20	n/a	n/a	1	n/a	n/a	n/a	n/a	n/a	n/a	n/a	n/a
1097.6228	1	80	n/a	n/a	1	n/a	n/a	n/a	n/a	n/a	n/a	n/a	n/a
1097.7228	1	80	n/a	n/a	1	n/a	n/a	n/a	n/a	n/a	n/a	n/a	n/a
1097.9306	1	31	n/a	n/a	1	n/a	n/a	n/a	n/a	n/a	n/a	n/a	n/a
1099.9472	1	10	572.5	572.5	1	1	0	0	0	0	0.3	0.3	6
1100.5306	1	20	n/a	n/a	1	n/a	n/a	n/a	n/a	n/a	n/a	n/a	n/a
1101.7946	1	80	n/a	n/a	1	n/a	n/a	n/a	n/a	n/a	n/a	n/a	n/a
1101.8946	1	80	n/a	n/a	1	n/a	n/a	n/a	n/a	n/a	n/a	n/a	n/a
1102.0972	1	30	n/a	n/a	1	n/a	n/a	n/a	n/a	n/a	n/a	n/a	n/a
1104.1136	1	10	534	534	1	1	0	0	0	0	0.1	0.1	7
1104.6636	1	20	n/a	n/a	1	n/a	n/a	n/a	n/a	n/a	n/a	n/a	n/a
1105.9826	1	80	n/a	n/a	1	n/a	n/a	n/a	n/a	n/a	n/a	n/a	n/a
1106.0826	1	80	n/a	n/a	1	n/a	n/a	n/a	n/a	n/a	n/a	n/a	n/a
1106.2968	1	31	n/a	n/a	1	n/a	n/a	n/a	n/a	n/a	n/a	n/a	n/a
1108.3134	1	10	1406.1	1406.1	1	1	0	0	0	0	0.3	0.3	8
1109.73	1	20	n/a	n/a	1	n/a	n/a	n/a	n/a	n/a	n/a	n/a	n/a
1110.849	1	80	n/a	n/a	1	n/a	n/a	n/a	n/a	n/a	n/a	n/a	n/a
1110.949	1	80	n/a	n/a	1	n/a	n/a	n/a	n/a	n/a	n/a	n/a	n/a
1111.1632	1	30	n/a	n/a	1	n/a	n/a	n/a	n/a	n/a	n/a	n/a	n/a
1113.1798	1	10	651.6	651.6	1	1	0	0	0	0	0.6	0.6	9
1113.8464	1	20	n/a	n/a	1	n/a	n/a	n/a	n/a	n/a	n/a	n/a	n/a
1115.3204	1	80	n/a	n/a	1	n/a	n/a	n/a	n/a	n/a	n/a	n/a	n/a
1115.4204	1	80	n/a	n/a	1	n/a	n/a	n/a	n/a	n/a	n/a	n/a	n/a
1115.6296	1	31	n/a	n/a	1	n/a	n/a	n/a	n/a	n/a	n/a	n/a	n/a
1117.6462	1	10	681.1	681.1	1	1	0	0	0	0	0.9	0.9	10
1118.3462	1	20	n/a	n/a	1	n/a	n/a	n/a	n/a	n/a	n/a	n/a	n/a
1120.1484	1	80	n/a	n/a	1	n/a	n/a	n/a	n/a	n/a	n/a	n/a	n/a
1120.2484	1	80	n/a	n/a	1	n/a	n/a	n/a	n/a	n/a	n/a	n/a	n/a
1120.4626	1	30	n/a	n/a	1	n/a	n/a	n/a	n/a	n/a	n/a	n/a	n/a
1131.4954	1	10	1215.6	1215.6	1	1	0	0	0.6	0.13134	0.7	0.44701	11
1132.7286	1	20	n/a	n/a	1	n/a	n/a	n/a	n/a	n/a	n/a	n/a	n/a
1134.4386	1	80	n/a	n/a	1	n/a	n/a	n/a	n/a	n/a	n/a	n/a	n/a
1134.5386	1	80	n/a	n/a	1	n/a	n/a	n/a	n/a	n/a	n/a	n/a	n/a
1134.7452	1	31	n/a	n/a	1	n/a	n/a	n/a	n/a	n/a	n/a	n/a	n/a
1136.7618	1	40	n/a	n/a	1	n/a	n/a	n/a	n/a	n/a	n/a	n/a	n/a
1138.7782	1	10	1308.5	1308.5	1	1	0	0	0.7	0.070369	0.9	0.83086	12
1140.0948	1	20	n/a	n/a	1	n/a	n/a	n/a	n/a	n/a	n/a	n/a	n/a
1142.0168	1	80	n/a	n/a	1	n/a	n/a	n/a	n/a	n/a	n/a	n/a	n/a
1142.1168	1	80	n/a	n/a	1	n/a	n/a	n/a	n/a	n/a	n/a	n/a	n/a
1142.328	1	30	n/a	n/a	1	n/a	n/a	n/a	n/a	n/a	n/a	n/a	n/a
1144.3446	1	40	n/a	n/a	1	n/a	n/a	n/a	n/a	n/a	n/a	n/a	n/a
1146.3612	1	10	717.5	717.5	1	1	0	0	0.4	0.4834	0.3	0.1556	13
1147.0944	1	20	n/a	n/a	1	n/a	n/a	n/a	n/a	n/a	n/a	n/a	n/a
1148.7984	1	80	n/a	n/a	1	n/a	n/a	n/a	n/a	n/a	n/a	n/a	n/a
1148.8984	1	80	n/a	n/a	1	n/a	n/a	n/a	n/a	n/a	n/a	n/a	n/a
1149.111	1	31	n/a	n/a	1	n/a	n/a	n/a	n/a	n/a	n/a	n/a	n/a
1151.1276	1	40	n/a	n/a	1	n/a	n/a	n/a	n/a	n/a	n/a	n/a	n/a
1153.1442	1	10	1822.3	1822.3	1	1	0	0	0.8	0.64735	0.3	0.089399	14
1154.9774	1	20	n/a	n/a	1	n/a	n/a	n/a	n/a	n/a	n/a	n/a	n/a
1156.6204	1	80	n/a	n/a	1	n/a	n/a	n/a	n/a	n/a	n/a	n/a	n/a
1156.7204	1	80	n/a	n/a	1	n/a	n/a	n/a	n/a	n/a	n/a	n/a	n/a
1156.9272	1	30	n/a	n/a	1	n/a	n/a	n/a	n/a	n/a	n/a	n/a	n/a
1158.9438	1	40	n/a	n/a	1	n/a	n/a	n/a	n/a	n/a	n/a	n/a	n/a
1160.9604	1	10	1030	1030	1	1	0	0	0.7	0.85621	0.6	0.95833	15
1161.9936	1	20	n/a	n/a	1	n/a	n/a	n/a	n/a	n/a	n/a	n/a	n/a
1163.0806	1	80	n/a	n/a	1	n/a	n/a	n/a	n/a	n/a	n/a	n/a	n/a
1163.1806	1	80	n/a	n/a	1	n/a	n/a	n/a	n/a	n/a	n/a	n/a	n/a
1163.3936	1	31	n/a	n/a	1	n/a	n/a	n/a	n/a	n/a	n/a	n/a	n/a
1165.41	1	40	n/a	n/a	1	n/a	n/a	n/a	n/a	n/a	n/a	n/a	n/a
1167.4266	1	10	1427.5	1427.5	1	1	0	0	0.6	0.34733	0.9	0.96875	16
1168.8598	1	20	n/a	n/a	1	n/a	n/a	n/a	n/a	n/a	n/a	n/a	n/a
1170.7388	1	80	n/a	n/a	1	n/a	n/a	n/a	n/a	n/a	n/a	n/a	n/a
1170.8388	1	80	n/a	n/a	1	n/a	n/a	n/a	n/a	n/a	n/a	n/a	n/a
1171.043	1	30	n/a	n/a	1	n/a	n/a	n/a	n/a	n/a	n/a	n/a	n/a
1173.0596	1	40	n/a	n/a	1	n/a	n/a	n/a	n/a	n/a	n/a	n/a	n/a
1175.0762	1	10	1281.9	1281.9	1	1	0	0	0.8	0.93236	0.1	0.22943	17
1176.376	1	20	n/a	n/a	1	n/a	n/a	n/a	n/a	n/a	n/a	n/a	n/a
1177.823	1	80	n/a	n/a	1	n/a	n/a	n/a	n/a	n/a	n/a	n/a	n/a
1177.923	1	80	n/a	n/a	1	n/a	n/a	n/a	n/a	n/a	n/a	n/a	n/a
1178.126	1	31	n/a	n/a	1	n/a	n/a	n/a	n/a	n/a	n/a	n/a	n/a
1180.1426	1	40	n/a	n/a	1	n/a	n/a	n/a	n/a	n/a	n/a	n/a	n/a
1182.159	1	10	1926.8	1926.8	1	1	0	0	0.4	0.35426	0.4	0.23617	18
1184.0922	1	20	n/a	n/a	1	n/a	n/a	n/a	n/a	n/a	n/a	n/a	n/a
1186.0312	1	80	n/a	n/a	1	n/a	n/a	n/a	n/a	n/a	n/a	n/a	n/a
1186.1312	1	80	n/a	n/a	1	n/a	n/a	n/a	n/a	n/a	n/a	n/a	n/a
1186.3422	1	30	n/a	n/a	1	n/a	n/a	n/a	n/a	n/a	n/a	n/a	n/a
1188.3588	1	40	n/a	n/a	1	n/a	n/a	n/a	n/a	n/a	n/a	n/a	n/a
1190.3752	1	10	910.5	910.5	1	1	0	0	0.8	0.5527	0.4	0.21078	19
1191.2918	1	20	n/a	n/a	1	n/a	n/a	n/a	n/a	n/a	n/a	n/a	n/a
1192.3988	1	80	n/a	n/a	1	n/a	n/a	n/a	n/a	n/a	n/a	n/a	n/a
1192.4988	1	80	n/a	n/a	1	n/a	n/a	n/a	n/a	n/a	n/a	n/a	n/a
1192.7084	1	30	n/a	n/a	1	n/a	n/a	n/a	n/a	n/a	n/a	n/a	n/a
1194.725	1	40	n/a	n/a	1	n/a	n/a	n/a	n/a	n/a	n/a	n/a	n/a
1196.7416	1	10	1680	1680	1	1	0	0	0.6	0.82271	0.2	0.23407	20
1198.4248	1	20	n/a	n/a	1	n/a	n/a	n/a	n/a	n/a	n/a	n/a	n/a
1200.1438	1	80	n/a	n/a	1	n/a	n/a	n/a	n/a	n/a	n/a	n/a	n/a
1200.2438	1	80	n/a	n/a	1	n/a	n/a	n/a	n/a	n/a	n/a	n/a	n/a
1200.458	1	30	n/a	n/a	1	n/a	n/a	n/a	n/a	n/a	n/a	n/a	n/a
1202.4746	1	40	n/a	n/a	1	n/a	n/a	n/a	n/a	n/a	n/a	n/a	n/a
1213.5072	1	10	770	770	1	1	0	0	0	0	0.7	0.7	21
1214.2904	1	20	n/a	n/a	1	n/a	n/a	n/a	n/a	n/a	n/a	n/a	n/a
1215.7646	1	80	n/a	n/a	1	n/a	n/a	n/a	n/a	n/a	n/a	n/a	n/a
1215.8646	1	80	n/a	n/a	1	n/a	n/a	n/a	n/a	n/a	n/a	n/a	n/a
1216.0738	1	31	n/a	n/a	1	n/a	n/a	n/a	n/a	n/a	n/a	n/a	n/a
1218.0902	1	10	874.8	874.8	1	1	0	0	0	0	0.3	0.3	22
1218.9736	1	20	n/a	n/a	1	n/a	n/a	n/a	n/a	n/a	n/a	n/a	n/a
1220.8486	1	80	n/a	n/a	1	n/a	n/a	n/a	n/a	n/a	n/a	n/a	n/a
1220.9486	1	80	n/a	n/a	1	n/a	n/a	n/a	n/a	n/a	n/a	n/a	n/a
1221.1568	1	31	n/a	n/a	1	n/a	n/a	n/a	n/a	n/a	n/a	n/a	n/a
1223.1734	1	10	559.7	559.7	1	1	0	0	0	0	0.2	0.2	23
1223.74	1	20	n/a	n/a	1	n/a	n/a	n/a	n/a	n/a	n/a	n/a	n/a
1225.612	1	80	n/a	n/a	1	n/a	n/a	n/a	n/a	n/a	n/a	n/a	n/a
1225.712	1	80	n/a	n/a	1	n/a	n/a	n/a	n/a	n/a	n/a	n/a	n/a
1225.9232	1	31	n/a	n/a	1	n/a	n/a	n/a	n/a	n/a	n/a	n/a	n/a
1227.9396	1	10	1025.2	1025.2	1	1	0	0	0	0	0.4	0.4	24
1228.973	1	20	n/a	n/a	1	n/a	n/a	n/a	n/a	n/a	n/a	n/a	n/a
1230.906	1	80	n/a	n/a	1	n/a	n/a	n/a	n/a	n/a	n/a	n/a	n/a
1231.006	1	80	n/a	n/a	1	n/a	n/a	n/a	n/a	n/a	n/a	n/a	n/a
1231.2228	1	30	n/a	n/a	1	n/a	n/a	n/a	n/a	n/a	n/a	n/a	n/a
1233.2394	1	10	621.3	621.3	1	1	0	0	0	0	0.2	0.2	25
1233.8726	1	20	n/a	n/a	1	n/a	n/a	n/a	n/a	n/a	n/a	n/a	n/a
1235.4528	1	80	n/a	n/a	1	n/a	n/a	n/a	n/a	n/a	n/a	n/a	n/a
1235.5528	1	80	n/a	n/a	1	n/a	n/a	n/a	n/a	n/a	n/a	n/a	n/a
1235.7558	1	31	n/a	n/a	1	n/a	n/a	n/a	n/a	n/a	n/a	n/a	n/a
1237.7724	1	10	504.2	504.2	1	1	0	0	0	0	0.9	0.9	26
1238.289	1	20	n/a	n/a	1	n/a	n/a	n/a	n/a	n/a	n/a	n/a	n/a
1239.854	1	80	n/a	n/a	1	n/a	n/a	n/a	n/a	n/a	n/a	n/a	n/a
1239.954	1	80	n/a	n/a	1	n/a	n/a	n/a	n/a	n/a	n/a	n/a	n/a
1240.1556	1	31	n/a	n/a	1	n/a	n/a	n/a	n/a	n/a	n/a	n/a	n/a
1242.1722	1	10	728.3	728.3	1	1	0	0	0	0	0.1	0.1	27
1242.9054	1	20	n/a	n/a	1	n/a	n/a	n/a	n/a	n/a	n/a	n/a	n/a
1243.9624	1	80	n/a	n/a	1	n/a	n/a	n/a	n/a	n/a	n/a	n/a	n/a
1244.0624	1	80	n/a	n/a	1	n/a	n/a	n/a	n/a	n/a	n/a	n/a	n/a
1244.272	1	31	n/a	n/a	1	n/a	n/a	n/a	n/a	n/a	n/a	n/a	n/a
1246.2886	1	10	627.8	627.8	1	1	0	0	0	0	0.1	0.1	28
1246.922	1	20	n/a	n/a	1	n/a	n/a	n/a	n/a	n/a	n/a	n/a	n/a
1248.17	1	80	n/a	n/a	1	n/a	n/a	n/a	n/a	n/a	n/a	n/a	n/a
1248.27	1	80	n/a	n/a	1	n/a	n/a	n/a	n/a	n/a	n/a	n/a	n/a
1248.4718	1	31	n/a	n/a	1	n/a	n/a	n/a	n/a	n/a	n/a	n/a	n/a
1250.4884	1	10	476	476	1	1	0	0	0	0	0.1	0.1	29
1250.9716	1	20	n/a	n/a	1	n/a	n/a	n/a	n/a	n/a	n/a	n/a	n/a
1252.9126	1	80	n/a	n/a	1	n/a	n/a	n/a	n/a	n/a	n/a	n/a	n/a
1253.0126	1	80	n/a	n/a	1	n/a	n/a	n/a	n/a	n/a	n/a	n/a	n/a
1253.2216	1	31	n/a	n/a	1	n/a	n/a	n/a	n/a	n/a	n/a	n/a	n/a
1255.238	1	10	686.1	686.1	1	1	0	0	0	0	0.5	0.5	30
1255.938	1	20	n/a	n/a	1	n/a	n/a	n/a	n/a	n/a	n/a	n/a	n/a
1257.735	1	80	n/a	n/a	1	n/a	n/a	n/a	n/a	n/a	n/a	n/a	n/a
1257.835	1	80	n/a	n/a	1	n/a	n/a	n/a	n/a	n/a	n/a	n/a	n/a
1258.038	1	31	n/a	n/a	1	n/a	n/a	n/a	n/a	n/a	n/a	n/a	n/a
1269.0706	1	10	2357.2	2357.2	1	1	0	0	0.8	0.25732	0.7	0.52927	31
1271.4372	1	20	n/a	n/a	1	n/a	n/a	n/a	n/a	n/a	n/a	n/a	n/a
1272.9412	1	80	n/a	n/a	1	n/a	n/a	n/a	n/a	n/a	n/a	n/a	n/a
1273.0412	1	80	n/a	n/a	1	n/a	n/a	n/a	n/a	n/a	n/a	n/a	n/a
1273.2536	1	30	n/a	n/a	1	n/a	n/a	n/a	n/a	n/a	n/a	n/a	n/a
1275.2702	1	40	n/a	n/a	1	n/a	n/a	n/a	n/a	n/a	n/a	n/a	n/a
1277.2868	1	10	2380.9	2380.9	1	1	0	0	0.8	0.46605	0.6	0.8642	32
1279.67	1	20	n/a	n/a	1	n/a	n/a	n/a	n/a	n/a	n/a	n/a	n/a
1281.143	1	80	n/a	n/a	1	n/a	n/a	n/a	n/a	n/a	n/a	n/a	n/a
1281.243	1	80	n/a	n/a	1	n/a	n/a	n/a	n/a	n/a	n/a	n/a	n/a
1281.4532	1	30	n/a	n/a	1	n/a	n/a	n/a	n/a	n/a	n/a	n/a	n/a
1283.4698	1	40	n/a	n/a	1	n/a	n/a	n/a	n/a	n/a	n/a	n/a	n/a
1285.4864	1	10	2837.2	2837.2	1	1	0	0	0.7	0.34613	0.7	0.80765	33
1288.3362	1	20	n/a	n/a	1	n/a	n/a	n/a	n/a	n/a	n/a	n/a	n/a
1289.7932	1	80	n/a	n/a	1	n/a	n/a	n/a	n/a	n/a	n/a	n/a	n/a
1289.8932	1	80	n/a	n/a	1	n/a	n/a	n/a	n/a	n/a	n/a	n/a	n/a
1290.1026	1	31	n/a	n/a	1	n/a	n/a	n/a	n/a	n/a	n/a	n/a	n/a
1292.1192	1	40	n/a	n/a	1	n/a	n/a	n/a	n/a	n/a	n/a	n/a	n/a
1294.1358	1	10	875.5	875.5	1	1	0	0	0.4	0.85086	0.1	0.067239	34
1295.019	1	20	n/a	n/a	1	n/a	n/a	n/a	n/a	n/a	n/a	n/a	n/a
1296.104	1	80	n/a	n/a	1	n/a	n/a	n/a	n/a	n/a	n/a	n/a	n/a
1296.204	1	80	n/a	n/a	1	n/a	n/a	n/a	n/a	n/a	n/a	n/a	n/a
1296.419	1	31	n/a	n/a	1	n/a	n/a	n/a	n/a	n/a	n/a	n/a	n/a
1298.4356	1	40	n/a	n/a	1	n/a	n/a	n/a	n/a	n/a	n/a	n/a	n/a
1300.452	1	10	655.1	655.1	1	1	0	0	0.4	0.2623	0.7	0.67486	35
1301.1188	1	20	n/a	n/a	1	n/a	n/a	n/a	n/a	n/a	n/a	n/a	n/a
1302.7588	1	80	n/a	n/a	1	n/a	n/a	n/a	n/a	n/a	n/a	n/a	n/a
1302.8588	1	80	n/a	n/a	1	n/a	n/a	n/a	n/a	n/a	n/a	n/a	n/a
1303.0686	1	30	n/a	n/a	1	n/a	n/a	n/a	n/a	n/a	n/a	n/a	n/a
1305.0852	1	40	n/a	n/a	1	n/a	n/a	n/a	n/a	n/a	n/a	n/a	n/a
1307.1016	1	10	741.4	741.4	1	1	0	0	0.5	0.44385	0.1	0.025	36
1307.8516	1	20	n/a	n/a	1	n/a	n/a	n/a	n/a	n/a	n/a	n/a	n/a
1309.8406	1	80	n/a	n/a	1	n/a	n/a	n/a	n/a	n/a	n/a	n/a	n/a
1309.9406	1	80	n/a	n/a	1	n/a	n/a	n/a	n/a	n/a	n/a	n/a	n/a
1310.1516	1	31	n/a	n/a	1	n/a	n/a	n/a	n/a	n/a	n/a	n/a	n/a
1312.168	1	40	n/a	n/a	1	n/a	n/a	n/a	n/a	n/a	n/a	n/a	n/a
1314.1846	1	10	778.2	778.2	1	1	0	0	0.4	0.060399	0.6	0.3736	37
1314.9678	1	20	n/a	n/a	1	n/a	n/a	n/a	n/a	n/a	n/a	n/a	n/a
1316.093	1	80	n/a	n/a	1	n/a	n/a	n/a	n/a	n/a	n/a	n/a	n/a
1316.193	1	80	n/a	n/a	1	n/a	n/a	n/a	n/a	n/a	n/a	n/a	n/a
1316.4012	1	30	n/a	n/a	1	n/a	n/a	n/a	n/a	n/a	n/a	n/a	n/a
1318.4176	1	40	n/a	n/a	1	n/a	n/a	n/a	n/a	n/a	n/a	n/a	n/a
1320.4342	1	10	608.5	608.5	1	1	0	0	0.5	0.064472	0.9	0.86447	38
1321.0508	1	20	n/a	n/a	1	n/a	n/a	n/a	n/a	n/a	n/a	n/a	n/a
1322.6548	1	80	n/a	n/a	1	n/a	n/a	n/a	n/a	n/a	n/a	n/a	n/a
1322.7548	1	80	n/a	n/a	1	n/a	n/a	n/a	n/a	n/a	n/a	n/a	n/a
1322.9674	1	31	n/a	n/a	1	n/a	n/a	n/a	n/a	n/a	n/a	n/a	n/a
1324.984	1	40	n/a	n/a	1	n/a	n/a	n/a	n/a	n/a	n/a	n/a	n/a
1327.0006	1	10	1370	1370	1	1	0	0	0.6	0.92109	0.4	0.88163	39
1328.3838	1	20	n/a	n/a	1	n/a	n/a	n/a	n/a	n/a	n/a	n/a	n/a
1329.8568	1	80	n/a	n/a	1	n/a	n/a	n/a	n/a	n/a	n/a	n/a	n/a
1329.9568	1	80	n/a	n/a	1	n/a	n/a	n/a	n/a	n/a	n/a	n/a	n/a
1330.167	1	30	n/a	n/a	1	n/a	n/a	n/a	n/a	n/a	n/a	n/a	n/a
1332.1836	1	40	n/a	n/a	1	n/a	n/a	n/a	n/a	n/a	n/a	n/a	n/a
1334.2	1	10	666.3	666.3	1	1	0	0	0.4	0.69127	0.2	0.12751	40
1334.8834	1	20	n/a	n/a	1	n/a	n/a	n/a	n/a	n/a	n/a	n/a	n/a
1336.2464	1	80	n/a	n/a	1	n/a	n/a	n/a	n/a	n/a	n/a	n/a	n/a
1336.3464	1	80	n/a	n/a	1	n/a	n/a	n/a	n/a	n/a	n/a	n/a	n/a
1336.55	1	30	n/a	n/a	1	n/a	n/a	n/a	n/a	n/a	n/a	n/a	n/a
1338.5666	1	40	n/a	n/a	1	n/a	n/a	n/a	n/a	n/a	n/a	n/a	n/a
1397.6296	1	10	2003.3	2003.3	1	0	1	0	0	0	0.5	0.5	1
1399.6462	1	20	n/a	n/a	1	n/a	n/a	n/a	n/a	n/a	n/a	n/a	n/a
1400.7452	1	80	n/a	n/a	1	n/a	n/a	n/a	n/a	n/a	n/a	n/a	n/a
1400.8452	1	80	n/a	n/a	1	n/a	n/a	n/a	n/a	n/a	n/a	n/a	n/a
1401.0628	1	30	n/a	n/a	1	n/a	n/a	n/a	n/a	n/a	n/a	n/a	n/a
1403.0794	1	10	601.5	601.5	1	0	1	0	0	0	0.1	0.1	2
1403.696	1	20	n/a	n/a	1	n/a	n/a	n/a	n/a	n/a	n/a	n/a	n/a
1405.606	1	80	n/a	n/a	1	n/a	n/a	n/a	n/a	n/a	n/a	n/a	n/a
1405.706	1	80	n/a	n/a	1	n/a	n/a	n/a	n/a	n/a	n/a	n/a	n/a
1405.9126	1	31	n/a	n/a	1	n/a	n/a	n/a	n/a	n/a	n/a	n/a	n/a
1407.929	1	10	759.7	759.7	1	0	1	0	0	0	0.7	0.7	3
1408.6956	1	20	n/a	n/a	1	n/a	n/a	n/a	n/a	n/a	n/a	n/a	n/a
1410.5358	1	80	n/a	n/a	1	n/a	n/a	n/a	n/a	n/a	n/a	n/a	n/a
1410.6358	1	80	n/a	n/a	1	n/a	n/a	n/a	n/a	n/a	n/a	n/a	n/a
1410.8456	1	31	n/a	n/a	1	n/a	n/a	n/a	n/a	n/a	n/a	n/a	n/a
1412.8622	1	10	594.5	594.5	1	0	1	0	0	0	0.9	0.9	4
1413.462	1	20	n/a	n/a	1	n/a	n/a	n/a	n/a	n/a	n/a	n/a	n/a
1414.549	1	80	n/a	n/a	1	n/a	n/a	n/a	n/a	n/a	n/a	n/a	n/a
1414.649	1	80	n/a	n/a	1	n/a	n/a	n/a	n/a	n/a	n/a	n/a	n/a
1414.862	1	31	n/a	n/a	1	n/a	n/a	n/a	n/a	n/a	n/a	n/a	n/a
1416.8786	1	10	530	530	1	0	1	0	0	0	0.1	0.1	5
1417.4118	1	20	n/a	n/a	1	n/a	n/a	n/a	n/a	n/a	n/a	n/a	n/a
1419.1438	1	80	n/a	n/a	1	n/a	n/a	n/a	n/a	n/a	n/a	n/a	n/a
1419.2438	1	80	n/a	n/a	1	n/a	n/a	n/a	n/a	n/a	n/a	n/a	n/a
1419.4618	1	31	n/a	n/a	1	n/a	n/a	n/a	n/a	n/a	n/a	n/a	n/a
1421.4782	1	10	826.1	826.1	1	0	1	0	0	0	0.4	0.4	6
1422.3116	1	20	n/a	n/a	1	n/a	n/a	n/a	n/a	n/a	n/a	n/a	n/a
1423.9846	1	80	n/a	n/a	1	n/a	n/a	n/a	n/a	n/a	n/a	n/a	n/a
1424.0846	1	80	n/a	n/a	1	n/a	n/a	n/a	n/a	n/a	n/a	n/a	n/a
1424.2948	1	30	n/a	n/a	1	n/a	n/a	n/a	n/a	n/a	n/a	n/a	n/a
1426.3114	1	10	809	809	1	0	1	0	0	0	0.6	0.6	7
1427.128	1	20	n/a	n/a	1	n/a	n/a	n/a	n/a	n/a	n/a	n/a	n/a
1428.912	1	80	n/a	n/a	1	n/a	n/a	n/a	n/a	n/a	n/a	n/a	n/a
1429.012	1	80	n/a	n/a	1	n/a	n/a	n/a	n/a	n/a	n/a	n/a	n/a
1429.2278	1	30	n/a	n/a	1	n/a	n/a	n/a	n/a	n/a	n/a	n/a	n/a
1431.2444	1	10	691.8	691.8	1	0	1	0	0	0	0.8	0.8	8
1431.9444	1	20	n/a	n/a	1	n/a	n/a	n/a	n/a	n/a	n/a	n/a	n/a
1433.3084	1	80	n/a	n/a	1	n/a	n/a	n/a	n/a	n/a	n/a	n/a	n/a
1433.4084	1	80	n/a	n/a	1	n/a	n/a	n/a	n/a	n/a	n/a	n/a	n/a
1433.6108	1	31	n/a	n/a	1	n/a	n/a	n/a	n/a	n/a	n/a	n/a	n/a
1435.6274	1	10	1508.7	1508.7	1	0	1	0	0	0	0.8	0.8	9
1437.144	1	20	n/a	n/a	1	n/a	n/a	n/a	n/a	n/a	n/a	n/a	n/a
1438.76	1	80	n/a	n/a	1	n/a	n/a	n/a	n/a	n/a	n/a	n/a	n/a
1438.86	1	80	n/a	n/a	1	n/a	n/a	n/a	n/a	n/a	n/a	n/a	n/a
1439.0772	1	30	n/a	n/a	1	n/a	n/a	n/a	n/a	n/a	n/a	n/a	n/a
1441.0938	1	10	586.2	586.2	1	0	1	0	0	0	0.1	0.1	10
1441.6938	1	20	n/a	n/a	1	n/a	n/a	n/a	n/a	n/a	n/a	n/a	n/a
1443.1738	1	80	n/a	n/a	1	n/a	n/a	n/a	n/a	n/a	n/a	n/a	n/a
1443.2738	1	80	n/a	n/a	1	n/a	n/a	n/a	n/a	n/a	n/a	n/a	n/a
1443.477	1	31	n/a	n/a	1	n/a	n/a	n/a	n/a	n/a	n/a	n/a	n/a
1454.5096	1	10	2402	2402	1	0	1	0	0.7	0.39936	0.9	0.95833	11
1456.9262	1	20	n/a	n/a	1	n/a	n/a	n/a	n/a	n/a	n/a	n/a	n/a
1458.0472	1	80	n/a	n/a	1	n/a	n/a	n/a	n/a	n/a	n/a	n/a	n/a
1458.1472	1	80	n/a	n/a	1	n/a	n/a	n/a	n/a	n/a	n/a	n/a	n/a
1458.3594	1	30	n/a	n/a	1	n/a	n/a	n/a	n/a	n/a	n/a	n/a	n/a
1460.376	1	40	n/a	n/a	1	n/a	n/a	n/a	n/a	n/a	n/a	n/a	n/a
1462.3926	1	10	790.9	790.9	1	0	1	0	0.4	0.053703	0.4	0.035802	12
1463.1924	1	20	n/a	n/a	1	n/a	n/a	n/a	n/a	n/a	n/a	n/a	n/a
1464.2396	1	80	n/a	n/a	1	n/a	n/a	n/a	n/a	n/a	n/a	n/a	n/a
1464.3396	1	80	n/a	n/a	1	n/a	n/a	n/a	n/a	n/a	n/a	n/a	n/a
1464.5424	1	30	n/a	n/a	1	n/a	n/a	n/a	n/a	n/a	n/a	n/a	n/a
1466.559	1	40	n/a	n/a	1	n/a	n/a	n/a	n/a	n/a	n/a	n/a	n/a
1468.5756	1	10	559.9	559.9	1	0	1	0	0.4	0.13842	0.1	0.020833	13
1469.1422	1	20	n/a	n/a	1	n/a	n/a	n/a	n/a	n/a	n/a	n/a	n/a
1471.0442	1	80	n/a	n/a	1	n/a	n/a	n/a	n/a	n/a	n/a	n/a	n/a
1471.1442	1	80	n/a	n/a	1	n/a	n/a	n/a	n/a	n/a	n/a	n/a	n/a
1471.3586	1	31	n/a	n/a	1	n/a	n/a	n/a	n/a	n/a	n/a	n/a	n/a
1473.3752	1	40	n/a	n/a	1	n/a	n/a	n/a	n/a	n/a	n/a	n/a	n/a
1475.3918	1	10	735.5	735.5	1	0	1	0	0.6	0.75935	0.8	0.96875	14
1476.1418	1	20	n/a	n/a	1	n/a	n/a	n/a	n/a	n/a	n/a	n/a	n/a
1477.3288	1	80	n/a	n/a	1	n/a	n/a	n/a	n/a	n/a	n/a	n/a	n/a
1477.4288	1	80	n/a	n/a	1	n/a	n/a	n/a	n/a	n/a	n/a	n/a	n/a
1477.6416	1	30	n/a	n/a	1	n/a	n/a	n/a	n/a	n/a	n/a	n/a	n/a
1479.6582	1	40	n/a	n/a	1	n/a	n/a	n/a	n/a	n/a	n/a	n/a	n/a
1481.6748	1	10	596.3	596.3	1	0	1	0	0.4	0.69931	0.9	0.97917	15
1482.2746	1	20	n/a	n/a	1	n/a	n/a	n/a	n/a	n/a	n/a	n/a	n/a
1484.2148	1	80	n/a	n/a	1	n/a	n/a	n/a	n/a	n/a	n/a	n/a	n/a
1484.3148	1	80	n/a	n/a	1	n/a	n/a	n/a	n/a	n/a	n/a	n/a	n/a
1484.5246	1	31	n/a	n/a	1	n/a	n/a	n/a	n/a	n/a	n/a	n/a	n/a
1486.5412	1	40	n/a	n/a	1	n/a	n/a	n/a	n/a	n/a	n/a	n/a	n/a
1488.5576	1	10	465.3	465.3	1	0	1	0	0.4	0.87201	0.1	0.081338	16
1489.041	1	20	n/a	n/a	1	n/a	n/a	n/a	n/a	n/a	n/a	n/a	n/a
1490.509	1	80	n/a	n/a	1	n/a	n/a	n/a	n/a	n/a	n/a	n/a	n/a
1490.609	1	80	n/a	n/a	1	n/a	n/a	n/a	n/a	n/a	n/a	n/a	n/a
1490.8242	1	30	n/a	n/a	1	n/a	n/a	n/a	n/a	n/a	n/a	n/a	n/a
1492.8408	1	40	n/a	n/a	1	n/a	n/a	n/a	n/a	n/a	n/a	n/a	n/a
1494.8572	1	10	885.5	885.5	1	0	1	0	0.7	0.054407	0.7	0.12695	17
1495.7572	1	20	n/a	n/a	1	n/a	n/a	n/a	n/a	n/a	n/a	n/a	n/a
1496.7972	1	80	n/a	n/a	1	n/a	n/a	n/a	n/a	n/a	n/a	n/a	n/a
1496.8972	1	80	n/a	n/a	1	n/a	n/a	n/a	n/a	n/a	n/a	n/a	n/a
1497.1072	1	31	n/a	n/a	1	n/a	n/a	n/a	n/a	n/a	n/a	n/a	n/a
1499.1236	1	40	n/a	n/a	1	n/a	n/a	n/a	n/a	n/a	n/a	n/a	n/a
1501.1402	1	10	650.4	650.4	1	0	1	0	0.5	0.85642	0.1	0.056415	18
1501.8068	1	20	n/a	n/a	1	n/a	n/a	n/a	n/a	n/a	n/a	n/a	n/a
1503.1378	1	80	n/a	n/a	1	n/a	n/a	n/a	n/a	n/a	n/a	n/a	n/a
1503.2378	1	80	n/a	n/a	1	n/a	n/a	n/a	n/a	n/a	n/a	n/a	n/a
1503.4402	1	30	n/a	n/a	1	n/a	n/a	n/a	n/a	n/a	n/a	n/a	n/a
1505.4566	1	40	n/a	n/a	1	n/a	n/a	n/a	n/a	n/a	n/a	n/a	n/a
1507.4732	1	10	1597.3	1597.3	1	0	1	0	0.4	0.24836	0.5	0.33224	19
1509.0732	1	20	n/a	n/a	1	n/a	n/a	n/a	n/a	n/a	n/a	n/a	n/a
1510.3612	1	80	n/a	n/a	1	n/a	n/a	n/a	n/a	n/a	n/a	n/a	n/a
1510.4612	1	80	n/a	n/a	1	n/a	n/a	n/a	n/a	n/a	n/a	n/a	n/a
1510.673	1	31	n/a	n/a	1	n/a	n/a	n/a	n/a	n/a	n/a	n/a	n/a
1512.6896	1	40	n/a	n/a	1	n/a	n/a	n/a	n/a	n/a	n/a	n/a	n/a
1514.7062	1	10	1020.2	1020.2	1	0	1	0	0.8	0.81871	0.2	0.27485	20
1515.7394	1	20	n/a	n/a	1	n/a	n/a	n/a	n/a	n/a	n/a	n/a	n/a
1517.6914	1	80	n/a	n/a	1	n/a	n/a	n/a	n/a	n/a	n/a	n/a	n/a
1517.7914	1	80	n/a	n/a	1	n/a	n/a	n/a	n/a	n/a	n/a	n/a	n/a
1518.006	1	30	n/a	n/a	1	n/a	n/a	n/a	n/a	n/a	n/a	n/a	n/a
1520.0224	1	40	n/a	n/a	1	n/a	n/a	n/a	n/a	n/a	n/a	n/a	n/a
1531.0552	1	10	750.8	750.8	1	0	1	0	0	0	0.3	0.3	21
1531.8218	1	20	n/a	n/a	1	n/a	n/a	n/a	n/a	n/a	n/a	n/a	n/a
1532.8508	1	80	n/a	n/a	1	n/a	n/a	n/a	n/a	n/a	n/a	n/a	n/a
1532.9508	1	80	n/a	n/a	1	n/a	n/a	n/a	n/a	n/a	n/a	n/a	n/a
1533.155	1	31	n/a	n/a	1	n/a	n/a	n/a	n/a	n/a	n/a	n/a	n/a
1535.1716	1	10	1002.3	1002.3	1	0	1	0	0	0	0.7	0.7	22
1536.1882	1	20	n/a	n/a	1	n/a	n/a	n/a	n/a	n/a	n/a	n/a	n/a
1537.3962	1	80	n/a	n/a	1	n/a	n/a	n/a	n/a	n/a	n/a	n/a	n/a
1537.4962	1	80	n/a	n/a	1	n/a	n/a	n/a	n/a	n/a	n/a	n/a	n/a
1537.7048	1	31	n/a	n/a	1	n/a	n/a	n/a	n/a	n/a	n/a	n/a	n/a
1539.7214	1	10	612.5	612.5	1	0	1	0	0	0	0.7	0.7	23
1540.338	1	20	n/a	n/a	1	n/a	n/a	n/a	n/a	n/a	n/a	n/a	n/a
1542.21	1	80	n/a	n/a	1	n/a	n/a	n/a	n/a	n/a	n/a	n/a	n/a
1542.31	1	80	n/a	n/a	1	n/a	n/a	n/a	n/a	n/a	n/a	n/a	n/a
1542.5212	1	31	n/a	n/a	1	n/a	n/a	n/a	n/a	n/a	n/a	n/a	n/a
1544.5376	1	10	772	772	1	0	1	0	0	0	0.8	0.8	24
1545.321	1	20	n/a	n/a	1	n/a	n/a	n/a	n/a	n/a	n/a	n/a	n/a
1546.828	1	80	n/a	n/a	1	n/a	n/a	n/a	n/a	n/a	n/a	n/a	n/a
1546.928	1	80	n/a	n/a	1	n/a	n/a	n/a	n/a	n/a	n/a	n/a	n/a
1547.1376	1	31	n/a	n/a	1	n/a	n/a	n/a	n/a	n/a	n/a	n/a	n/a
1549.154	1	10	715.5	715.5	1	0	1	0	0	0	0.8	0.8	25
1549.8874	1	20	n/a	n/a	1	n/a	n/a	n/a	n/a	n/a	n/a	n/a	n/a
1551.7094	1	80	n/a	n/a	1	n/a	n/a	n/a	n/a	n/a	n/a	n/a	n/a
1551.8094	1	80	n/a	n/a	1	n/a	n/a	n/a	n/a	n/a	n/a	n/a	n/a
1552.0206	1	30	n/a	n/a	1	n/a	n/a	n/a	n/a	n/a	n/a	n/a	n/a
1554.0372	1	10	1160.3	1160.3	1	0	1	0	0	0	0.4	0.4	26
1555.2038	1	20	n/a	n/a	1	n/a	n/a	n/a	n/a	n/a	n/a	n/a	n/a
1557.0878	1	80	n/a	n/a	1	n/a	n/a	n/a	n/a	n/a	n/a	n/a	n/a
1557.1878	1	80	n/a	n/a	1	n/a	n/a	n/a	n/a	n/a	n/a	n/a	n/a
1557.4036	1	30	n/a	n/a	1	n/a	n/a	n/a	n/a	n/a	n/a	n/a	n/a
1559.4202	1	10	481.2	481.2	1	0	1	0	0	0	0.9	0.9	27
1559.9202	1	20	n/a	n/a	1	n/a	n/a	n/a	n/a	n/a	n/a	n/a	n/a
1561.3352	1	80	n/a	n/a	1	n/a	n/a	n/a	n/a	n/a	n/a	n/a	n/a
1561.4352	1	80	n/a	n/a	1	n/a	n/a	n/a	n/a	n/a	n/a	n/a	n/a
1561.6534	1	30	n/a	n/a	1	n/a	n/a	n/a	n/a	n/a	n/a	n/a	n/a
1563.6532	1	10	1224	1224	1	0	1	0	0	0	0.8	0.8	28
1564.8864	1	20	n/a	n/a	1	n/a	n/a	n/a	n/a	n/a	n/a	n/a	n/a
1565.9114	1	80	n/a	n/a	1	n/a	n/a	n/a	n/a	n/a	n/a	n/a	n/a
1566.0114	1	80	n/a	n/a	1	n/a	n/a	n/a	n/a	n/a	n/a	n/a	n/a
1566.2198	1	31	n/a	n/a	1	n/a	n/a	n/a	n/a	n/a	n/a	n/a	n/a
1568.2362	1	10	432.8	432.8	1	0	1	0	0	0	0.3	0.3	29
1568.6862	1	20	n/a	n/a	1	n/a	n/a	n/a	n/a	n/a	n/a	n/a	n/a
1570.3762	1	80	n/a	n/a	1	n/a	n/a	n/a	n/a	n/a	n/a	n/a	n/a
1570.4762	1	80	n/a	n/a	1	n/a	n/a	n/a	n/a	n/a	n/a	n/a	n/a
1570.6862	1	31	n/a	n/a	1	n/a	n/a	n/a	n/a	n/a	n/a	n/a	n/a
1572.7026	1	10	446.3	446.3	1	0	1	0	0	0	0.5	0.5	30
1573.1526	1	20	n/a	n/a	1	n/a	n/a	n/a	n/a	n/a	n/a	n/a	n/a
1575.0996	1	80	n/a	n/a	1	n/a	n/a	n/a	n/a	n/a	n/a	n/a	n/a
1575.1996	1	80	n/a	n/a	1	n/a	n/a	n/a	n/a	n/a	n/a	n/a	n/a
1575.4026	1	30	n/a	n/a	1	n/a	n/a	n/a	n/a	n/a	n/a	n/a	n/a
1586.4352	1	10	1193.5	1193.5	1	0	1	0	0.4	0.16223	0.9	0.94149	31
1587.6352	1	20	n/a	n/a	1	n/a	n/a	n/a	n/a	n/a	n/a	n/a	n/a
1589.3152	1	80	n/a	n/a	1	n/a	n/a	n/a	n/a	n/a	n/a	n/a	n/a
1589.4152	1	80	n/a	n/a	1	n/a	n/a	n/a	n/a	n/a	n/a	n/a	n/a
1589.6184	1	31	n/a	n/a	1	n/a	n/a	n/a	n/a	n/a	n/a	n/a	n/a
1591.635	1	40	n/a	n/a	1	n/a	n/a	n/a	n/a	n/a	n/a	n/a	n/a
1593.6514	1	10	857	857	1	0	1	0	0.8	0.89755	0.1	0.090187	32
1594.518	1	20	n/a	n/a	1	n/a	n/a	n/a	n/a	n/a	n/a	n/a	n/a
1595.947	1	80	n/a	n/a	1	n/a	n/a	n/a	n/a	n/a	n/a	n/a	n/a
1596.047	1	80	n/a	n/a	1	n/a	n/a	n/a	n/a	n/a	n/a	n/a	n/a
1596.2512	1	31	n/a	n/a	1	n/a	n/a	n/a	n/a	n/a	n/a	n/a	n/a
1598.2678	1	40	n/a	n/a	1	n/a	n/a	n/a	n/a	n/a	n/a	n/a	n/a
1600.2844	1	10	1584	1584	1	0	1	0	0.8	0.36902	0.6	0.47606	33
1601.8842	1	20	n/a	n/a	1	n/a	n/a	n/a	n/a	n/a	n/a	n/a	n/a
1603.0214	1	80	n/a	n/a	1	n/a	n/a	n/a	n/a	n/a	n/a	n/a	n/a
1603.1214	1	80	n/a	n/a	1	n/a	n/a	n/a	n/a	n/a	n/a	n/a	n/a
1603.3342	1	31	n/a	n/a	1	n/a	n/a	n/a	n/a	n/a	n/a	n/a	n/a
1605.3508	1	40	n/a	n/a	1	n/a	n/a	n/a	n/a	n/a	n/a	n/a	n/a
1607.3674	1	10	1396.9	1396.9	1	0	1	0	0.8	0.099554	0.8	0.39822	34
1608.7672	1	20	n/a	n/a	1	n/a	n/a	n/a	n/a	n/a	n/a	n/a	n/a
1610.0702	1	80	n/a	n/a	1	n/a	n/a	n/a	n/a	n/a	n/a	n/a	n/a
1610.1702	1	80	n/a	n/a	1	n/a	n/a	n/a	n/a	n/a	n/a	n/a	n/a
1610.3838	1	30	n/a	n/a	1	n/a	n/a	n/a	n/a	n/a	n/a	n/a	n/a
1612.4004	1	40	n/a	n/a	1	n/a	n/a	n/a	n/a	n/a	n/a	n/a	n/a
1614.4168	1	10	731.2	731.2	1	0	1	0	0.8	0.46252	0.1	0.0625	35
1615.1502	1	20	n/a	n/a	1	n/a	n/a	n/a	n/a	n/a	n/a	n/a	n/a
1616.601	1	80	n/a	n/a	1	n/a	n/a	n/a	n/a	n/a	n/a	n/a	n/a
1616.701	1	80	n/a	n/a	1	n/a	n/a	n/a	n/a	n/a	n/a	n/a	n/a
1616.9168	1	31	n/a	n/a	1	n/a	n/a	n/a	n/a	n/a	n/a	n/a	n/a
1618.9332	1	40	n/a	n/a	1	n/a	n/a	n/a	n/a	n/a	n/a	n/a	n/a
1620.9498	1	10	2294	2294	1	0	1	0	0.4	0.12499	0.6	0.41666	36
1623.2498	1	20	n/a	n/a	1	n/a	n/a	n/a	n/a	n/a	n/a	n/a	n/a
1624.9998	1	80	n/a	n/a	1	n/a	n/a	n/a	n/a	n/a	n/a	n/a	n/a
1625.0998	1	80	n/a	n/a	1	n/a	n/a	n/a	n/a	n/a	n/a	n/a	n/a
1625.3162	1	31	n/a	n/a	1	n/a	n/a	n/a	n/a	n/a	n/a	n/a	n/a
1627.3328	1	40	n/a	n/a	1	n/a	n/a	n/a	n/a	n/a	n/a	n/a	n/a
1629.3494	1	10	1014.4	1014.4	1	0	1	0	0.6	0.025419	0.7	0.28813	37
1630.366	1	20	n/a	n/a	1	n/a	n/a	n/a	n/a	n/a	n/a	n/a	n/a
1631.583	1	80	n/a	n/a	1	n/a	n/a	n/a	n/a	n/a	n/a	n/a	n/a
1631.683	1	80	n/a	n/a	1	n/a	n/a	n/a	n/a	n/a	n/a	n/a	n/a
1631.8992	1	31	n/a	n/a	1	n/a	n/a	n/a	n/a	n/a	n/a	n/a	n/a
1633.9158	1	40	n/a	n/a	1	n/a	n/a	n/a	n/a	n/a	n/a	n/a	n/a
1635.9322	1	10	783.3	783.3	1	0	1	0	0.7	0.84928	0.2	0.31498	38
1636.7322	1	20	n/a	n/a	1	n/a	n/a	n/a	n/a	n/a	n/a	n/a	n/a
1638.4612	1	80	n/a	n/a	1	n/a	n/a	n/a	n/a	n/a	n/a	n/a	n/a
1638.5612	1	80	n/a	n/a	1	n/a	n/a	n/a	n/a	n/a	n/a	n/a	n/a
1638.7654	1	31	n/a	n/a	1	n/a	n/a	n/a	n/a	n/a	n/a	n/a	n/a
1640.782	1	40	n/a	n/a	1	n/a	n/a	n/a	n/a	n/a	n/a	n/a	n/a
1642.7986	1	10	1356.9	1356.9	1	0	1	0	0.8	0.70494	0.3	0.31976	39
1644.1652	1	20	n/a	n/a	1	n/a	n/a	n/a	n/a	n/a	n/a	n/a	n/a
1645.7182	1	80	n/a	n/a	1	n/a	n/a	n/a	n/a	n/a	n/a	n/a	n/a
1645.8182	1	80	n/a	n/a	1	n/a	n/a	n/a	n/a	n/a	n/a	n/a	n/a
1646.0316	1	31	n/a	n/a	1	n/a	n/a	n/a	n/a	n/a	n/a	n/a	n/a
1648.0482	1	40	n/a	n/a	1	n/a	n/a	n/a	n/a	n/a	n/a	n/a	n/a
1650.0648	1	10	1162.4	1162.4	1	0	1	0	0.5	0.88665	0.2	0.28665	40
1651.2314	1	20	n/a	n/a	1	n/a	n/a	n/a	n/a	n/a	n/a	n/a	n/a
1652.2364	1	80	n/a	n/a	1	n/a	n/a	n/a	n/a	n/a	n/a	n/a	n/a
1652.3364	1	80	n/a	n/a	1	n/a	n/a	n/a	n/a	n/a	n/a	n/a	n/a
1652.548	1	31	n/a	n/a	1	n/a	n/a	n/a	n/a	n/a	n/a	n/a	n/a
1654.5646	1	40	n/a	n/a	1	n/a	n/a	n/a	n/a	n/a	n/a	n/a	n/a
1705.0448	1	10	1157.2	1157.2	1	0	0	1	0	0	0.6	0.6	1
1706.2114	1	20	n/a	n/a	1	n/a	n/a	n/a	n/a	n/a	n/a	n/a	n/a
1707.6504	1	80	n/a	n/a	1	n/a	n/a	n/a	n/a	n/a	n/a	n/a	n/a
1707.7504	1	80	n/a	n/a	1	n/a	n/a	n/a	n/a	n/a	n/a	n/a	n/a
1707.9614	1	30	n/a	n/a	1	n/a	n/a	n/a	n/a	n/a	n/a	n/a	n/a
1709.978	1	10	576	576	1	0	0	1	0	0	0.1	0.1	2
1710.5612	1	20	n/a	n/a	1	n/a	n/a	n/a	n/a	n/a	n/a	n/a	n/a
1711.5872	1	80	n/a	n/a	1	n/a	n/a	n/a	n/a	n/a	n/a	n/a	n/a
1711.6872	1	80	n/a	n/a	1	n/a	n/a	n/a	n/a	n/a	n/a	n/a	n/a
1711.8944	1	31	n/a	n/a	1	n/a	n/a	n/a	n/a	n/a	n/a	n/a	n/a
1713.911	1	10	514.8	514.8	1	0	0	1	0	0	0.1	0.1	3
1714.4444	1	20	n/a	n/a	1	n/a	n/a	n/a	n/a	n/a	n/a	n/a	n/a
1716.4244	1	80	n/a	n/a	1	n/a	n/a	n/a	n/a	n/a	n/a	n/a	n/a
1716.5244	1	80	n/a	n/a	1	n/a	n/a	n/a	n/a	n/a	n/a	n/a	n/a
1716.7276	1	30	n/a	n/a	1	n/a	n/a	n/a	n/a	n/a	n/a	n/a	n/a
1718.744	1	10	561.7	561.7	1	0	0	1	0	0	0.7	0.7	4
1719.3108	1	20	n/a	n/a	1	n/a	n/a	n/a	n/a	n/a	n/a	n/a	n/a
1720.5058	1	80	n/a	n/a	1	n/a	n/a	n/a	n/a	n/a	n/a	n/a	n/a
1720.6058	1	80	n/a	n/a	1	n/a	n/a	n/a	n/a	n/a	n/a	n/a	n/a
1720.8106	1	31	n/a	n/a	1	n/a	n/a	n/a	n/a	n/a	n/a	n/a	n/a
1722.8272	1	10	1294.5	1294.5	1	0	0	1	0	0	0.9	0.9	5
1724.127	1	20	n/a	n/a	1	n/a	n/a	n/a	n/a	n/a	n/a	n/a	n/a
1725.4372	1	80	n/a	n/a	1	n/a	n/a	n/a	n/a	n/a	n/a	n/a	n/a
1725.537	1	80	n/a	n/a	1	n/a	n/a	n/a	n/a	n/a	n/a	n/a	n/a
1725.7436	1	30	n/a	n/a	1	n/a	n/a	n/a	n/a	n/a	n/a	n/a	n/a
1727.7602	1	10	665.3	665.3	1	0	0	1	0	0	0.8	0.8	6
1728.4434	1	20	n/a	n/a	1	n/a	n/a	n/a	n/a	n/a	n/a	n/a	n/a
1730.3706	1	80	n/a	n/a	1	n/a	n/a	n/a	n/a	n/a	n/a	n/a	n/a
1730.4706	1	80	n/a	n/a	1	n/a	n/a	n/a	n/a	n/a	n/a	n/a	n/a
1730.6766	1	31	n/a	n/a	1	n/a	n/a	n/a	n/a	n/a	n/a	n/a	n/a
1732.6932	1	10	596.2	596.2	1	0	0	1	0	0	0.7	0.7	7
1733.2932	1	20	n/a	n/a	1	n/a	n/a	n/a	n/a	n/a	n/a	n/a	n/a
1734.3392	1	80	n/a	n/a	1	n/a	n/a	n/a	n/a	n/a	n/a	n/a	n/a
1734.4392	1	80	n/a	n/a	1	n/a	n/a	n/a	n/a	n/a	n/a	n/a	n/a
1734.6432	1	31	n/a	n/a	1	n/a	n/a	n/a	n/a	n/a	n/a	n/a	n/a
1736.6596	1	10	437.6	437.6	1	0	0	1	0	0	0.6	0.6	8
1737.1096	1	20	n/a	n/a	1	n/a	n/a	n/a	n/a	n/a	n/a	n/a	n/a
1738.6666	1	80	n/a	n/a	1	n/a	n/a	n/a	n/a	n/a	n/a	n/a	n/a
1738.7666	1	80	n/a	n/a	1	n/a	n/a	n/a	n/a	n/a	n/a	n/a	n/a
1738.9762	1	31	n/a	n/a	1	n/a	n/a	n/a	n/a	n/a	n/a	n/a	n/a
1740.9928	1	10	648.5	648.5	1	0	0	1	0	0	0.2	0.2	9
1741.6594	1	20	n/a	n/a	1	n/a	n/a	n/a	n/a	n/a	n/a	n/a	n/a
1743.4704	1	80	n/a	n/a	1	n/a	n/a	n/a	n/a	n/a	n/a	n/a	n/a
1743.5704	1	80	n/a	n/a	1	n/a	n/a	n/a	n/a	n/a	n/a	n/a	n/a
1743.776	1	31	n/a	n/a	1	n/a	n/a	n/a	n/a	n/a	n/a	n/a	n/a
1745.7924	1	10	776.6	776.6	1	0	0	1	0	0	0.1	0.1	10
1746.5758	1	20	n/a	n/a	1	n/a	n/a	n/a	n/a	n/a	n/a	n/a	n/a
1747.8388	1	80	n/a	n/a	1	n/a	n/a	n/a	n/a	n/a	n/a	n/a	n/a
1747.9388	1	80	n/a	n/a	1	n/a	n/a	n/a	n/a	n/a	n/a	n/a	n/a
1748.1424	1	31	n/a	n/a	1	n/a	n/a	n/a	n/a	n/a	n/a	n/a	n/a
1759.175	1	10	1713.8	1713.8	1	0	0	1	0.6	0.2293	0.6	0.34395	11
1760.8916	1	20	n/a	n/a	1	n/a	n/a	n/a	n/a	n/a	n/a	n/a	n/a
1762.6926	1	80	n/a	n/a	1	n/a	n/a	n/a	n/a	n/a	n/a	n/a	n/a
1762.7926	1	80	n/a	n/a	1	n/a	n/a	n/a	n/a	n/a	n/a	n/a	n/a
1763.0082	1	31	n/a	n/a	1	n/a	n/a	n/a	n/a	n/a	n/a	n/a	n/a
1765.0246	1	40	n/a	n/a	1	n/a	n/a	n/a	n/a	n/a	n/a	n/a	n/a
1767.0412	1	10	1015.4	1015.4	1	0	0	1	0.5	0.09646	0.5	0.09646	12
1768.0744	1	20	n/a	n/a	1	n/a	n/a	n/a	n/a	n/a	n/a	n/a	n/a
1770.0036	1	80	n/a	n/a	1	n/a	n/a	n/a	n/a	n/a	n/a	n/a	n/a
1770.1036	1	80	n/a	n/a	1	n/a	n/a	n/a	n/a	n/a	n/a	n/a	n/a
1770.3076	1	30	n/a	n/a	1	n/a	n/a	n/a	n/a	n/a	n/a	n/a	n/a
1772.3242	1	40	n/a	n/a	1	n/a	n/a	n/a	n/a	n/a	n/a	n/a	n/a
1774.3408	1	10	1091.7	1091.7	1	0	0	1	0.6	0.034645	0.6	0.051967	13
1775.4408	1	20	n/a	n/a	1	n/a	n/a	n/a	n/a	n/a	n/a	n/a	n/a
1776.7958	1	80	n/a	n/a	1	n/a	n/a	n/a	n/a	n/a	n/a	n/a	n/a
1776.8958	1	80	n/a	n/a	1	n/a	n/a	n/a	n/a	n/a	n/a	n/a	n/a
1777.1072	1	31	n/a	n/a	1	n/a	n/a	n/a	n/a	n/a	n/a	n/a	n/a
1779.1238	1	40	n/a	n/a	1	n/a	n/a	n/a	n/a	n/a	n/a	n/a	n/a
1781.1404	1	10	915.9	915.9	1	0	0	1	0.5	0.12408	0.5	0.12408	14
1782.0736	1	20	n/a	n/a	1	n/a	n/a	n/a	n/a	n/a	n/a	n/a	n/a
1784.0156	1	80	n/a	n/a	1	n/a	n/a	n/a	n/a	n/a	n/a	n/a	n/a
1784.1156	1	80	n/a	n/a	1	n/a	n/a	n/a	n/a	n/a	n/a	n/a	n/a
1784.3236	1	31	n/a	n/a	1	n/a	n/a	n/a	n/a	n/a	n/a	n/a	n/a
1786.34	1	40	n/a	n/a	1	n/a	n/a	n/a	n/a	n/a	n/a	n/a	n/a
1788.3566	1	10	1747.5	1747.5	1	0	0	1	0.8	0.53845	0.4	0.15379	15
1790.1066	1	20	n/a	n/a	1	n/a	n/a	n/a	n/a	n/a	n/a	n/a	n/a
1791.2796	1	80	n/a	n/a	1	n/a	n/a	n/a	n/a	n/a	n/a	n/a	n/a
1791.3796	1	80	n/a	n/a	1	n/a	n/a	n/a	n/a	n/a	n/a	n/a	n/a
1791.5898	1	30	n/a	n/a	1	n/a	n/a	n/a	n/a	n/a	n/a	n/a	n/a
1793.6064	1	40	n/a	n/a	1	n/a	n/a	n/a	n/a	n/a	n/a	n/a	n/a
1795.6228	1	10	1489.1	1489.1	1	0	0	1	0.6	0.13971	0.9	0.95956	16
1797.1228	1	20	n/a	n/a	1	n/a	n/a	n/a	n/a	n/a	n/a	n/a	n/a
1798.7758	1	80	n/a	n/a	1	n/a	n/a	n/a	n/a	n/a	n/a	n/a	n/a
1798.8758	1	80	n/a	n/a	1	n/a	n/a	n/a	n/a	n/a	n/a	n/a	n/a
1799.0894	1	30	n/a	n/a	1	n/a	n/a	n/a	n/a	n/a	n/a	n/a	n/a
1801.1058	1	40	n/a	n/a	1	n/a	n/a	n/a	n/a	n/a	n/a	n/a	n/a
1803.1224	1	10	805.4	805.4	1	0	0	1	0.6	0.92235	0.2	0.38353	17
1803.939	1	20	n/a	n/a	1	n/a	n/a	n/a	n/a	n/a	n/a	n/a	n/a
1805.284	1	80	n/a	n/a	1	n/a	n/a	n/a	n/a	n/a	n/a	n/a	n/a
1805.384	1	80	n/a	n/a	1	n/a	n/a	n/a	n/a	n/a	n/a	n/a	n/a
1805.589	1	31	n/a	n/a	1	n/a	n/a	n/a	n/a	n/a	n/a	n/a	n/a
1807.6054	1	40	n/a	n/a	1	n/a	n/a	n/a	n/a	n/a	n/a	n/a	n/a
1809.622	1	10	721.6	721.6	1	0	0	1	0.5	0.74827	0.3	0.34827	18
1810.3554	1	20	n/a	n/a	1	n/a	n/a	n/a	n/a	n/a	n/a	n/a	n/a
1811.4804	1	80	n/a	n/a	1	n/a	n/a	n/a	n/a	n/a	n/a	n/a	n/a
1811.5804	1	80	n/a	n/a	1	n/a	n/a	n/a	n/a	n/a	n/a	n/a	n/a
1811.7886	1	30	n/a	n/a	1	n/a	n/a	n/a	n/a	n/a	n/a	n/a	n/a
1813.8052	1	40	n/a	n/a	1	n/a	n/a	n/a	n/a	n/a	n/a	n/a	n/a
1815.8216	1	10	1513.8	1513.8	1	0	0	1	0.7	0.98082	0.2	0.62191	19
1817.3382	1	20	n/a	n/a	1	n/a	n/a	n/a	n/a	n/a	n/a	n/a	n/a
1819.1882	1	80	n/a	n/a	1	n/a	n/a	n/a	n/a	n/a	n/a	n/a	n/a
1819.2882	1	80	n/a	n/a	1	n/a	n/a	n/a	n/a	n/a	n/a	n/a	n/a
1819.5048	1	30	n/a	n/a	1	n/a	n/a	n/a	n/a	n/a	n/a	n/a	n/a
1821.5214	1	40	n/a	n/a	1	n/a	n/a	n/a	n/a	n/a	n/a	n/a	n/a
1823.5378	1	10	549.4	549.4	1	0	0	1	0.4	0.39532	0.3	0.09688	20
1824.1046	1	20	n/a	n/a	1	n/a	n/a	n/a	n/a	n/a	n/a	n/a	n/a
1825.4886	1	80	n/a	n/a	1	n/a	n/a	n/a	n/a	n/a	n/a	n/a	n/a
1825.5886	1	80	n/a	n/a	1	n/a	n/a	n/a	n/a	n/a	n/a	n/a	n/a
1825.8044	1	30	n/a	n/a	1	n/a	n/a	n/a	n/a	n/a	n/a	n/a	n/a
1827.821	1	40	n/a	n/a	1	n/a	n/a	n/a	n/a	n/a	n/a	n/a	n/a
1838.8536	1	10	929.3	929.3	1	0	0	1	0	0	0.6	0.6	21
1839.787	1	20	n/a	n/a	1	n/a	n/a	n/a	n/a	n/a	n/a	n/a	n/a
1841.172	1	80	n/a	n/a	1	n/a	n/a	n/a	n/a	n/a	n/a	n/a	n/a
1841.272	1	80	n/a	n/a	1	n/a	n/a	n/a	n/a	n/a	n/a	n/a	n/a
1841.4868	1	31	n/a	n/a	1	n/a	n/a	n/a	n/a	n/a	n/a	n/a	n/a
1843.5034	1	10	743.5	743.5	1	0	0	1	0	0	0.6	0.6	22
1844.2534	1	20	n/a	n/a	1	n/a	n/a	n/a	n/a	n/a	n/a	n/a	n/a
1846.2164	1	80	n/a	n/a	1	n/a	n/a	n/a	n/a	n/a	n/a	n/a	n/a
1846.3164	1	80	n/a	n/a	1	n/a	n/a	n/a	n/a	n/a	n/a	n/a	n/a
1846.5198	1	31	n/a	n/a	1	n/a	n/a	n/a	n/a	n/a	n/a	n/a	n/a
1848.5364	1	10	958.4	958.4	1	0	0	1	0	0	0.1	0.1	23
1849.503	1	20	n/a	n/a	1	n/a	n/a	n/a	n/a	n/a	n/a	n/a	n/a
1850.527	1	80	n/a	n/a	1	n/a	n/a	n/a	n/a	n/a	n/a	n/a	n/a
1850.627	1	80	n/a	n/a	1	n/a	n/a	n/a	n/a	n/a	n/a	n/a	n/a
1850.8362	1	31	n/a	n/a	1	n/a	n/a	n/a	n/a	n/a	n/a	n/a	n/a
1852.8528	1	10	993.9	993.9	1	0	0	1	0	0	0.1	0.1	24
1853.8528	1	20	n/a	n/a	1	n/a	n/a	n/a	n/a	n/a	n/a	n/a	n/a
1854.9468	1	80	n/a	n/a	1	n/a	n/a	n/a	n/a	n/a	n/a	n/a	n/a
1855.0468	1	80	n/a	n/a	1	n/a	n/a	n/a	n/a	n/a	n/a	n/a	n/a
1855.2526	1	31	n/a	n/a	1	n/a	n/a	n/a	n/a	n/a	n/a	n/a	n/a
1857.2692	1	10	689.3	689.3	1	0	0	1	0	0	0.1	0.1	25
1857.9692	1	20	n/a	n/a	1	n/a	n/a	n/a	n/a	n/a	n/a	n/a	n/a
1859.0302	1	80	n/a	n/a	1	n/a	n/a	n/a	n/a	n/a	n/a	n/a	n/a
1859.1302	1	80	n/a	n/a	1	n/a	n/a	n/a	n/a	n/a	n/a	n/a	n/a
1859.3358	1	31	n/a	n/a	1	n/a	n/a	n/a	n/a	n/a	n/a	n/a	n/a
1861.3524	1	10	622.1	622.1	1	0	0	1	0	0	0.3	0.3	26
1861.9856	1	20	n/a	n/a	1	n/a	n/a	n/a	n/a	n/a	n/a	n/a	n/a
1863.0246	1	80	n/a	n/a	1	n/a	n/a	n/a	n/a	n/a	n/a	n/a	n/a
1863.1246	1	80	n/a	n/a	1	n/a	n/a	n/a	n/a	n/a	n/a	n/a	n/a
1863.3356	1	30	n/a	n/a	1	n/a	n/a	n/a	n/a	n/a	n/a	n/a	n/a
1865.352	1	10	910.3	910.3	1	0	0	1	0	0	0.7	0.7	27
1866.2686	1	20	n/a	n/a	1	n/a	n/a	n/a	n/a	n/a	n/a	n/a	n/a
1868.0788	1	80	n/a	n/a	1	n/a	n/a	n/a	n/a	n/a	n/a	n/a	n/a
1868.1788	1	80	n/a	n/a	1	n/a	n/a	n/a	n/a	n/a	n/a	n/a	n/a
1868.3852	1	30	n/a	n/a	1	n/a	n/a	n/a	n/a	n/a	n/a	n/a	n/a
1870.4018	1	10	724.5	724.5	1	0	0	1	0	0	0.3	0.3	28
1871.135	1	20	n/a	n/a	1	n/a	n/a	n/a	n/a	n/a	n/a	n/a	n/a
1872.276	1	80	n/a	n/a	1	n/a	n/a	n/a	n/a	n/a	n/a	n/a	n/a
1872.376	1	80	n/a	n/a	1	n/a	n/a	n/a	n/a	n/a	n/a	n/a	n/a
1872.585	1	30	n/a	n/a	1	n/a	n/a	n/a	n/a	n/a	n/a	n/a	n/a
1874.6016	1	10	700.6	700.6	1	0	0	1	0	0	0.6	0.6	29
1875.3182	1	20	n/a	n/a	1	n/a	n/a	n/a	n/a	n/a	n/a	n/a	n/a
1876.7842	1	80	n/a	n/a	1	n/a	n/a	n/a	n/a	n/a	n/a	n/a	n/a
1876.8842	1	80	n/a	n/a	1	n/a	n/a	n/a	n/a	n/a	n/a	n/a	n/a
1877.1014	1	31	n/a	n/a	1	n/a	n/a	n/a	n/a	n/a	n/a	n/a	n/a
1879.118	1	10	600.1	600.1	1	0	0	1	0	0	0.3	0.3	30
1879.7346	1	20	n/a	n/a	1	n/a	n/a	n/a	n/a	n/a	n/a	n/a	n/a
1881.1736	1	80	n/a	n/a	1	n/a	n/a	n/a	n/a	n/a	n/a	n/a	n/a
1881.2736	1	80	n/a	n/a	1	n/a	n/a	n/a	n/a	n/a	n/a	n/a	n/a
1881.4844	1	31	n/a	n/a	1	n/a	n/a	n/a	n/a	n/a	n/a	n/a	n/a
1892.5172	1	10	1296.7	1296.7	1	0	0	1	0.8	0.50278	0.8	0.9375	31
1893.817	1	20	n/a	n/a	1	n/a	n/a	n/a	n/a	n/a	n/a	n/a	n/a
1895.156	1	80	n/a	n/a	1	n/a	n/a	n/a	n/a	n/a	n/a	n/a	n/a
1895.256	1	80	n/a	n/a	1	n/a	n/a	n/a	n/a	n/a	n/a	n/a	n/a
1895.467	1	31	n/a	n/a	1	n/a	n/a	n/a	n/a	n/a	n/a	n/a	n/a
1897.4836	1	40	n/a	n/a	1	n/a	n/a	n/a	n/a	n/a	n/a	n/a	n/a
1899.5	1	10	793.5	793.5	1	0	0	1	0.5	0.85711	0.1	0.057107	32
1900.3	1	20	n/a	n/a	1	n/a	n/a	n/a	n/a	n/a	n/a	n/a	n/a
1901.752	1	80	n/a	n/a	1	n/a	n/a	n/a	n/a	n/a	n/a	n/a	n/a
1901.852	1	80	n/a	n/a	1	n/a	n/a	n/a	n/a	n/a	n/a	n/a	n/a
1902.0666	1	31	n/a	n/a	1	n/a	n/a	n/a	n/a	n/a	n/a	n/a	n/a
1904.0832	1	40	n/a	n/a	1	n/a	n/a	n/a	n/a	n/a	n/a	n/a	n/a
1906.0996	1	10	753.8	753.8	1	0	0	1	0.5	0.73925	0.2	0.13925	33
1906.8662	1	20	n/a	n/a	1	n/a	n/a	n/a	n/a	n/a	n/a	n/a	n/a
1907.8724	1	80	n/a	n/a	1	n/a	n/a	n/a	n/a	n/a	n/a	n/a	n/a
1907.9724	1	80	n/a	n/a	1	n/a	n/a	n/a	n/a	n/a	n/a	n/a	n/a
1908.1828	1	31	n/a	n/a	1	n/a	n/a	n/a	n/a	n/a	n/a	n/a	n/a
1910.1994	1	40	n/a	n/a	1	n/a	n/a	n/a	n/a	n/a	n/a	n/a	n/a
1912.216	1	10	717.3	717.3	1	0	0	1	0.5	0.64652	0.2	0.046522	34
1912.9492	1	20	n/a	n/a	1	n/a	n/a	n/a	n/a	n/a	n/a	n/a	n/a
1914.3722	1	80	n/a	n/a	1	n/a	n/a	n/a	n/a	n/a	n/a	n/a	n/a
1914.4722	1	80	n/a	n/a	1	n/a	n/a	n/a	n/a	n/a	n/a	n/a	n/a
1914.6826	1	31	n/a	n/a	1	n/a	n/a	n/a	n/a	n/a	n/a	n/a	n/a
1916.699	1	40	n/a	n/a	1	n/a	n/a	n/a	n/a	n/a	n/a	n/a	n/a
1918.7156	1	10	937.6	937.6	1	0	0	1	0.8	0.74263	0.6	0.9375	35
1919.6656	1	20	n/a	n/a	1	n/a	n/a	n/a	n/a	n/a	n/a	n/a	n/a
1921.6116	1	80	n/a	n/a	1	n/a	n/a	n/a	n/a	n/a	n/a	n/a	n/a
1921.7116	1	80	n/a	n/a	1	n/a	n/a	n/a	n/a	n/a	n/a	n/a	n/a
1921.9154	1	31	n/a	n/a	1	n/a	n/a	n/a	n/a	n/a	n/a	n/a	n/a
1923.932	1	40	n/a	n/a	1	n/a	n/a	n/a	n/a	n/a	n/a	n/a	n/a
1925.9486	1	10	632.5	632.5	1	0	0	1	0.5	0.34663	0.1	0.025	36
1926.5984	1	20	n/a	n/a	1	n/a	n/a	n/a	n/a	n/a	n/a	n/a	n/a
1927.7304	1	80	n/a	n/a	1	n/a	n/a	n/a	n/a	n/a	n/a	n/a	n/a
1927.8304	1	80	n/a	n/a	1	n/a	n/a	n/a	n/a	n/a	n/a	n/a	n/a
1928.0484	1	30	n/a	n/a	1	n/a	n/a	n/a	n/a	n/a	n/a	n/a	n/a
1930.065	1	40	n/a	n/a	1	n/a	n/a	n/a	n/a	n/a	n/a	n/a	n/a
1932.0814	1	10	1443.4	1443.4	1	0	0	1	0.8	0.92286	0.1	0.19143	37
1933.5314	1	20	n/a	n/a	1	n/a	n/a	n/a	n/a	n/a	n/a	n/a	n/a
1935.1414	1	80	n/a	n/a	1	n/a	n/a	n/a	n/a	n/a	n/a	n/a	n/a
1935.2414	1	80	n/a	n/a	1	n/a	n/a	n/a	n/a	n/a	n/a	n/a	n/a
1935.448	1	31	n/a	n/a	1	n/a	n/a	n/a	n/a	n/a	n/a	n/a	n/a
1937.4644	1	40	n/a	n/a	1	n/a	n/a	n/a	n/a	n/a	n/a	n/a	n/a
1939.481	1	10	1067.6	1067.6	1	0	0	1	0.5	0.054071	0.7	0.45407	38
1940.5644	1	20	n/a	n/a	1	n/a	n/a	n/a	n/a	n/a	n/a	n/a	n/a
1942.5264	1	80	n/a	n/a	1	n/a	n/a	n/a	n/a	n/a	n/a	n/a	n/a
1942.6264	1	80	n/a	n/a	1	n/a	n/a	n/a	n/a	n/a	n/a	n/a	n/a
1942.8308	1	31	n/a	n/a	1	n/a	n/a	n/a	n/a	n/a	n/a	n/a	n/a
1944.8474	1	40	n/a	n/a	1	n/a	n/a	n/a	n/a	n/a	n/a	n/a	n/a
1946.864	1	10	964.6	964.6	1	0	0	1	0.7	0.66941	0.5	0.89529	39
1947.8472	1	20	n/a	n/a	1	n/a	n/a	n/a	n/a	n/a	n/a	n/a	n/a
1949.5676	1	80	n/a	n/a	1	n/a	n/a	n/a	n/a	n/a	n/a	n/a	n/a
1949.6674	1	80	n/a	n/a	1	n/a	n/a	n/a	n/a	n/a	n/a	n/a	n/a
1949.8804	1	30	n/a	n/a	1	n/a	n/a	n/a	n/a	n/a	n/a	n/a	n/a
1951.897	1	40	n/a	n/a	1	n/a	n/a	n/a	n/a	n/a	n/a	n/a	n/a
1953.9136	1	10	1210.8	1210.8	1	0	0	1	0.4	0.19724	0.7	0.6315	40
1955.1302	1	20	n/a	n/a	1	n/a	n/a	n/a	n/a	n/a	n/a	n/a	n/a
1956.1582	1	80	n/a	n/a	1	n/a	n/a	n/a	n/a	n/a	n/a	n/a	n/a
1956.2582	1	80	n/a	n/a	1	n/a	n/a	n/a	n/a	n/a	n/a	n/a	n/a
1956.4634	1	30	n/a	n/a	1	n/a	n/a	n/a	n/a	n/a	n/a	n/a	n/a
1958.48	1	40	n/a	n/a	1	n/a	n/a	n/a	n/a	n/a	n/a	n/a	n/a
