onset	duration	value	response	rt	good	a	bias	p	pv	ronda
4.2683	1	9	-99	-99	1	n/a	n/a	n/a	n/a	n/a
5.2827	1	10	1	2746.8	1	0	0	0.3	0.3	1
8.0431	1	20	-99	-99	1	n/a	n/a	n/a	n/a	n/a
11.4022	1	30	-99	-99	1	n/a	n/a	n/a	n/a	n/a
15.4098	1	9	-99	-99	1	n/a	n/a	n/a	n/a	n/a
16.4241	1	10	2	2596.2	1	0	0	0.3	0.3	2
19.0349	1	20	-99	-99	1	n/a	n/a	n/a	n/a	n/a
23.242	1	31	-99	-99	1	n/a	n/a	n/a	n/a	n/a
27.2496	1	9	-99	-99	1	n/a	n/a	n/a	n/a	n/a
28.264	1	10	2	2254	1	0	0	0.7	0.7	3
30.5256	1	20	-99	-99	1	n/a	n/a	n/a	n/a	n/a
33.1363	1	30	-99	-99	1	n/a	n/a	n/a	n/a	n/a
37.1439	1	9	-99	-99	1	n/a	n/a	n/a	n/a	n/a
38.1583	1	10	1	3581	1	0	0	0.5	0.5	4
41.7502	1	20	-99	-99	1	n/a	n/a	n/a	n/a	n/a
45.2256	1	30	-99	-99	1	n/a	n/a	n/a	n/a	n/a
49.2333	1	9	-99	-99	1	n/a	n/a	n/a	n/a	n/a
50.2476	1	10	2	2882.7	1	0.5	0.29961	0.7	0.69961	1
53.1411	1	20	-99	-99	1	n/a	n/a	n/a	n/a	n/a
57.0323	1	30	-99	-99	1	n/a	n/a	n/a	n/a	n/a
61.0399	1	40	-99	-99	1	n/a	n/a	n/a	n/a	n/a
66.0619	1	9	-99	-99	1	n/a	n/a	n/a	n/a	n/a
67.0762	1	10	2	2702.2	1	0.8	0.21934	0.6	0.0625	2
69.7868	1	20	4	2540.7	1	n/a	n/a	n/a	n/a	n/a
73.2456	1	30	-99	-99	1	n/a	n/a	n/a	n/a	n/a
77.2532	1	40	-99	-99	1	n/a	n/a	n/a	n/a	n/a
79.2653	1	9	-99	-99	1	n/a	n/a	n/a	n/a	n/a
80.2797	1	10	1	2084.2	1	0.4	0.82813	0.1	0.052086	3
82.375	1	20	-99	-99	1	n/a	n/a	n/a	n/a	n/a
86.5488	1	30	-99	-99	1	n/a	n/a	n/a	n/a	n/a
90.5565	1	40	-99	-99	1	n/a	n/a	n/a	n/a	n/a
92.5686	1	9	-99	-99	1	n/a	n/a	n/a	n/a	n/a
93.5829	1	10	2	3052.1	1	0.4	0.54066	0.5	0.5271	4
96.6427	1	20	-99	-99	1	n/a	n/a	n/a	n/a	n/a
99.32	1	30	-99	-99	1	n/a	n/a	n/a	n/a	n/a
103.3276	1	40	-99	-99	1	n/a	n/a	n/a	n/a	n/a
105.3397	1	9	-99	-99	1	n/a	n/a	n/a	n/a	n/a
106.3541	1	10	1	2517	1	0	0	0.3	0.3	1
108.8817	1	20	-99	-99	1	n/a	n/a	n/a	n/a	n/a
111.4259	1	31	-99	-99	1	n/a	n/a	n/a	n/a	n/a
115.4335	1	9	-99	-99	1	n/a	n/a	n/a	n/a	n/a
116.4479	1	10	2	2359.2	1	0	0	0.4	0.4	2
118.8092	1	20	-99	-99	1	n/a	n/a	n/a	n/a	n/a
122.9997	1	31	-99	-99	1	n/a	n/a	n/a	n/a	n/a
130.0172	1	9	-99	-99	1	n/a	n/a	n/a	n/a	n/a
131.0315	1	10	1	1418	1	0	0	0.4	0.4	3
132.4617	1	20	-99	-99	1	n/a	n/a	n/a	n/a	n/a
135.139	1	30	-99	-99	1	n/a	n/a	n/a	n/a	n/a
139.1465	1	9	-99	-99	1	n/a	n/a	n/a	n/a	n/a
140.1609	1	10	1	2485	1	0	0	0.7	0.7	4
142.6553	1	20	-99	-99	1	n/a	n/a	n/a	n/a	n/a
146.297	1	31	-99	-99	1	n/a	n/a	n/a	n/a	n/a
150.3046	1	9	-99	-99	1	n/a	n/a	n/a	n/a	n/a
151.319	1	10	2	3170.4	1	0.7	0.59663	0.5	0.72547	1
154.4952	1	20	-99	-99	1	n/a	n/a	n/a	n/a	n/a
157.5549	1	31	-99	-99	1	n/a	n/a	n/a	n/a	n/a
161.5625	1	40	-99	-99	1	n/a	n/a	n/a	n/a	n/a
163.5746	1	9	-99	-99	1	n/a	n/a	n/a	n/a	n/a
164.589	1	10	1	3986.5	1	0.4	0.8091	0.1	0.039402	2
168.58	1	20	-99	-99	1	n/a	n/a	n/a	n/a	n/a
172.2883	1	31	-99	-99	1	n/a	n/a	n/a	n/a	n/a
176.2959	1	40	-99	-99	1	n/a	n/a	n/a	n/a	n/a
178.308	1	9	-99	-99	1	n/a	n/a	n/a	n/a	n/a
179.3224	1	10	2	2673.2	1	0.7	0.6422	0.1	0.041667	3
181.9996	1	20	-99	-99	1	n/a	n/a	n/a	n/a	n/a
184.6769	1	30	-99	-99	1	n/a	n/a	n/a	n/a	n/a
188.6845	1	40	-99	-99	1	n/a	n/a	n/a	n/a	n/a
193.7065	1	9	-99	-99	1	n/a	n/a	n/a	n/a	n/a
194.7209	1	10	2	1621.2	1	0.5	0.26149	0.7	0.66149	4
196.3505	1	20	3	3055.4	1	n/a	n/a	n/a	n/a	n/a
199.5599	1	30	-99	-99	1	n/a	n/a	n/a	n/a	n/a
203.5675	1	40	-99	-99	1	n/a	n/a	n/a	n/a	n/a
205.5796	1	9	-99	-99	1	n/a	n/a	n/a	n/a	n/a
206.594	1	10	2	854.6	1	0	0	0.9	0.9	1
207.4587	1	20	-99	-99	1	n/a	n/a	n/a	n/a	n/a
210.136	1	30	-99	-99	1	n/a	n/a	n/a	n/a	n/a
214.1602	1	9	-99	-99	1	n/a	n/a	n/a	n/a	n/a
215.1746	1	10	1	3436.6	1	0	0	0.1	0.1	2
218.6168	1	20	-99	-99	1	n/a	n/a	n/a	n/a	n/a
221.3107	1	31	-99	-99	1	n/a	n/a	n/a	n/a	n/a
225.3349	1	9	-99	-99	1	n/a	n/a	n/a	n/a	n/a
226.3493	1	10	2	4096.4	1	0	0	0.6	0.6	3
230.4567	1	20	-99	-99	1	n/a	n/a	n/a	n/a	n/a
234.5474	1	31	-99	-99	1	n/a	n/a	n/a	n/a	n/a
238.5717	1	9	-99	-99	1	n/a	n/a	n/a	n/a	n/a
239.5861	1	10	1	2611.7	1	0	0	0.9	0.9	4
242.2134	1	20	-99	-99	1	n/a	n/a	n/a	n/a	n/a
245.6557	1	31	-99	-99	1	n/a	n/a	n/a	n/a	n/a
252.6731	1	9	-99	-99	1	n/a	n/a	n/a	n/a	n/a
253.6875	1	10	1	3672.9	1	0.7	0.93696	0.3	0.85291	1
257.3625	1	20	-99	-99	1	n/a	n/a	n/a	n/a	n/a
261.0209	1	31	-99	-99	1	n/a	n/a	n/a	n/a	n/a
265.0285	1	40	-99	-99	1	n/a	n/a	n/a	n/a	n/a
267.0406	1	9	-99	-99	1	n/a	n/a	n/a	n/a	n/a
268.055	1	10	1	2432.4	1	0.6	0.9323	0.1	0.14845	2
270.4994	1	20	-99	-99	1	n/a	n/a	n/a	n/a	n/a
274.0913	1	30	-99	-99	1	n/a	n/a	n/a	n/a	n/a
278.0989	1	40	-99	-99	1	n/a	n/a	n/a	n/a	n/a
280.111	1	9	-99	-99	1	n/a	n/a	n/a	n/a	n/a
281.1254	1	10	2	2014.2	1	0.7	0.94537	0.2	0.5392	3
283.1542	1	20	-99	-99	1	n/a	n/a	n/a	n/a	n/a
286.4634	1	30	-99	-99	1	n/a	n/a	n/a	n/a	n/a
290.4709	1	40	-99	-99	1	n/a	n/a	n/a	n/a	n/a
292.4831	1	9	-99	-99	1	n/a	n/a	n/a	n/a	n/a
293.4974	1	10	2	1350.5	1	0.8	0.65892	0.4	0.63568	4
294.861	1	20	-99	-99	1	n/a	n/a	n/a	n/a	n/a
297.5549	1	30	-99	-99	1	n/a	n/a	n/a	n/a	n/a
301.5625	1	40	-99	-99	1	n/a	n/a	n/a	n/a	n/a
303.5747	1	9	-99	-99	1	n/a	n/a	n/a	n/a	n/a
304.589	1	10	2	2842.1	1	0	0	0.1	0.1	1
307.4492	1	20	-99	-99	1	n/a	n/a	n/a	n/a	n/a
310.0932	1	31	-99	-99	1	n/a	n/a	n/a	n/a	n/a
317.1107	1	9	-99	-99	1	n/a	n/a	n/a	n/a	n/a
318.1251	1	10	1	1243.5	1	0	0	0.4	0.4	2
319.3722	1	20	-99	-99	1	n/a	n/a	n/a	n/a	n/a
322.3987	1	30	-99	-99	1	n/a	n/a	n/a	n/a	n/a
326.423	1	9	-99	-99	1	n/a	n/a	n/a	n/a	n/a
327.4373	1	10	2	2680.4	1	0	0	0.1	0.1	3
330.1313	1	20	-99	-99	1	n/a	n/a	n/a	n/a	n/a
333.5735	1	31	-99	-99	1	n/a	n/a	n/a	n/a	n/a
337.5977	1	9	-99	-99	1	n/a	n/a	n/a	n/a	n/a
338.6121	1	10	1	1937.2	1	0	0	0.3	0.3	4
340.5577	1	20	-99	-99	1	n/a	n/a	n/a	n/a	n/a
344.2161	1	30	-99	-99	1	n/a	n/a	n/a	n/a	n/a
348.2403	1	9	-99	-99	1	n/a	n/a	n/a	n/a	n/a
349.2547	1	10	1	2354.2	1	0.6	0.3503	0.5	0.27545	1
351.616	1	20	-99	-99	1	n/a	n/a	n/a	n/a	n/a
354.8919	1	30	-99	-99	1	n/a	n/a	n/a	n/a	n/a
358.8995	1	40	-99	-99	1	n/a	n/a	n/a	n/a	n/a
360.9116	1	9	-99	-99	1	n/a	n/a	n/a	n/a	n/a
361.926	1	10	1	2351.1	1	0.4	0.64144	0.3	0.26096	2
364.2873	1	20	-99	-99	1	n/a	n/a	n/a	n/a	n/a
368.4113	1	30	-99	-99	1	n/a	n/a	n/a	n/a	n/a
372.4189	1	40	-99	-99	1	n/a	n/a	n/a	n/a	n/a
377.4409	1	9	-99	-99	1	n/a	n/a	n/a	n/a	n/a
378.4553	1	10	1	1294.9	1	0.7	0.55121	0.1	0.041667	3
379.7523	1	20	-99	-99	1	n/a	n/a	n/a	n/a	n/a
384.0427	1	30	-99	-99	1	n/a	n/a	n/a	n/a	n/a
388.0503	1	40	3	633.6	1	n/a	n/a	n/a	n/a	n/a
390.0624	1	9	-99	-99	1	n/a	n/a	n/a	n/a	n/a
391.0767	1	10	1	2619.1	1	0.6	0.91948	0.1	0.12922	4
393.7041	1	20	-99	-99	1	n/a	n/a	n/a	n/a	n/a
397.0964	1	30	-99	-99	1	n/a	n/a	n/a	n/a	n/a
401.104	1	40	-99	-99	1	n/a	n/a	n/a	n/a	n/a
403.1162	1	9	-99	-99	1	n/a	n/a	n/a	n/a	n/a
404.1305	1	10	1	1206.6	1	0	0	0.9	0.9	1
405.3445	1	20	-99	-99	1	n/a	n/a	n/a	n/a	n/a
409.5516	1	31	-99	-99	1	n/a	n/a	n/a	n/a	n/a
413.5759	1	9	-99	-99	1	n/a	n/a	n/a	n/a	n/a
414.5902	1	10	2	1662.2	1	0	0	0.8	0.8	2
416.2697	1	20	-99	-99	1	n/a	n/a	n/a	n/a	n/a
419.529	1	30	-99	-99	1	n/a	n/a	n/a	n/a	n/a
423.5533	1	9	-99	-99	1	n/a	n/a	n/a	n/a	n/a
424.5677	1	10	2	1558.5	1	0	0	0.7	0.7	3
426.1308	1	20	-99	-99	1	n/a	n/a	n/a	n/a	n/a
429.3069	1	31	-99	-99	1	n/a	n/a	n/a	n/a	n/a
436.3244	1	9	-99	-99	1	n/a	n/a	n/a	n/a	n/a
437.3388	1	10	2	1776.3	1	0	0	0.4	0.4	4
439.1181	1	20	-99	-99	1	n/a	n/a	n/a	n/a	n/a
441.945	1	30	-99	-99	1	n/a	n/a	n/a	n/a	n/a
445.9692	1	9	-99	-99	1	n/a	n/a	n/a	n/a	n/a
446.9836	1	10	1	3199	1	0.7	0.76959	0.3	0.46237	1
450.193	1	20	-99	-99	1	n/a	n/a	n/a	n/a	n/a
454.051	1	30	-99	-99	1	n/a	n/a	n/a	n/a	n/a
458.0586	1	40	-99	-99	1	n/a	n/a	n/a	n/a	n/a
460.0873	1	9	-99	-99	1	n/a	n/a	n/a	n/a	n/a
461.1017	1	10	2	3354.1	1	0.7	0.47985	0.6	0.78631	2
464.4608	1	20	-99	-99	1	n/a	n/a	n/a	n/a	n/a
468.7012	1	31	-99	-99	1	n/a	n/a	n/a	n/a	n/a
472.7088	1	40	-99	-99	1	n/a	n/a	n/a	n/a	n/a
474.7375	1	9	-99	-99	1	n/a	n/a	n/a	n/a	n/a
475.7519	1	10	1	5427.5	1	0.5	0.15521	0.6	0.35521	3
481.1896	1	20	-99	-99	1	n/a	n/a	n/a	n/a	n/a
485.6295	1	30	-99	-99	1	n/a	n/a	n/a	n/a	n/a
489.6371	1	40	-99	-99	1	n/a	n/a	n/a	n/a	n/a
491.6659	1	9	-99	-99	1	n/a	n/a	n/a	n/a	n/a
492.6799	1	10	1	2574.1	1	0.7	0.88276	0.1	0.059775	4
495.2578	1	20	-99	-99	1	n/a	n/a	n/a	n/a	n/a
499.2155	1	31	-99	-99	1	n/a	n/a	n/a	n/a	n/a
503.2231	1	40	-99	-99	1	n/a	n/a	n/a	n/a	n/a
