onset	duration	value	response	rt	good	TMSips	TMSppc	TMSvertex	a	bias	p	pv	ronda
159.5154	1	9	n/a	n/a	1	n/a	n/a	n/a	n/a	n/a	n/a	n/a	n/a
160.532	1	10	2	2101	1	0	1	0	0	0	0.3	0.3	1
162.6484	1	20	n/a	n/a	1	n/a	n/a	n/a	n/a	n/a	n/a	n/a	n/a
166.4724	1	80	n/a	n/a	1	n/a	n/a	n/a	n/a	n/a	n/a	n/a	n/a
166.5724	1	80	n/a	n/a	1	n/a	n/a	n/a	n/a	n/a	n/a	n/a	n/a
166.9816	1	31	n/a	n/a	1	n/a	n/a	n/a	n/a	n/a	n/a	n/a	n/a
170.998	1	9	n/a	n/a	1	n/a	n/a	n/a	n/a	n/a	n/a	n/a	n/a
172.0146	1	10	2	1322	1	0	1	0	0	0	0.1	0.1	2
173.3478	1	20	n/a	n/a	1	n/a	n/a	n/a	n/a	n/a	n/a	n/a	n/a
177.2268	1	80	n/a	n/a	1	n/a	n/a	n/a	n/a	n/a	n/a	n/a	n/a
177.3268	1	80	n/a	n/a	1	n/a	n/a	n/a	n/a	n/a	n/a	n/a	n/a
177.7308	1	31	n/a	n/a	1	n/a	n/a	n/a	n/a	n/a	n/a	n/a	n/a
181.7474	1	9	n/a	n/a	1	n/a	n/a	n/a	n/a	n/a	n/a	n/a	n/a
182.764	1	10	2	2092	1	0	1	0	0	0	0.2	0.2	3
184.8638	1	20	n/a	n/a	1	n/a	n/a	n/a	n/a	n/a	n/a	n/a	n/a
187.4198	1	80	n/a	n/a	1	n/a	n/a	n/a	n/a	n/a	n/a	n/a	n/a
187.5198	1	80	n/a	n/a	1	n/a	n/a	n/a	n/a	n/a	n/a	n/a	n/a
187.9302	1	31	n/a	n/a	1	n/a	n/a	n/a	n/a	n/a	n/a	n/a	n/a
191.9468	1	9	n/a	n/a	1	n/a	n/a	n/a	n/a	n/a	n/a	n/a	n/a
192.9634	1	10	1	1861	1	0	1	0	0	0	0.7	0.7	4
194.8298	1	20	n/a	n/a	1	n/a	n/a	n/a	n/a	n/a	n/a	n/a	n/a
197.6108	1	80	n/a	n/a	1	n/a	n/a	n/a	n/a	n/a	n/a	n/a	n/a
197.7108	1	80	n/a	n/a	1	n/a	n/a	n/a	n/a	n/a	n/a	n/a	n/a
198.113	1	31	n/a	n/a	1	n/a	n/a	n/a	n/a	n/a	n/a	n/a	n/a
202.1294	1	9	n/a	n/a	1	n/a	n/a	n/a	n/a	n/a	n/a	n/a	n/a
203.146	1	10	2	2910	1	0	1	0	0	0	0.4	0.4	5
206.0626	1	20	n/a	n/a	1	n/a	n/a	n/a	n/a	n/a	n/a	n/a	n/a
208.8846	1	80	n/a	n/a	1	n/a	n/a	n/a	n/a	n/a	n/a	n/a	n/a
208.9846	1	80	n/a	n/a	1	n/a	n/a	n/a	n/a	n/a	n/a	n/a	n/a
209.3956	1	30	n/a	n/a	1	n/a	n/a	n/a	n/a	n/a	n/a	n/a	n/a
213.412	1	9	n/a	n/a	1	n/a	n/a	n/a	n/a	n/a	n/a	n/a	n/a
214.4286	1	10	2	1211	1	0	1	0	0	0	0.3	0.3	6
215.6452	1	20	n/a	n/a	1	n/a	n/a	n/a	n/a	n/a	n/a	n/a	n/a
218.9112	1	80	n/a	n/a	1	n/a	n/a	n/a	n/a	n/a	n/a	n/a	n/a
219.0112	1	80	n/a	n/a	1	n/a	n/a	n/a	n/a	n/a	n/a	n/a	n/a
219.4284	1	31	n/a	n/a	1	n/a	n/a	n/a	n/a	n/a	n/a	n/a	n/a
223.4448	1	9	n/a	n/a	1	n/a	n/a	n/a	n/a	n/a	n/a	n/a	n/a
224.4614	1	10	2	1178	1	0	1	0	0	0	0.2	0.2	7
225.6446	1	20	n/a	n/a	1	n/a	n/a	n/a	n/a	n/a	n/a	n/a	n/a
228.4516	1	80	n/a	n/a	1	n/a	n/a	n/a	n/a	n/a	n/a	n/a	n/a
228.5516	1	80	n/a	n/a	1	n/a	n/a	n/a	n/a	n/a	n/a	n/a	n/a
228.9612	1	30	n/a	n/a	1	n/a	n/a	n/a	n/a	n/a	n/a	n/a	n/a
232.9776	1	9	n/a	n/a	1	n/a	n/a	n/a	n/a	n/a	n/a	n/a	n/a
233.9942	1	10	1	1629	1	0	1	0	0	0	0.8	0.8	8
235.6274	1	20	n/a	n/a	1	n/a	n/a	n/a	n/a	n/a	n/a	n/a	n/a
240.0624	1	80	n/a	n/a	1	n/a	n/a	n/a	n/a	n/a	n/a	n/a	n/a
240.1624	1	80	n/a	n/a	1	n/a	n/a	n/a	n/a	n/a	n/a	n/a	n/a
240.5772	1	31	n/a	n/a	1	n/a	n/a	n/a	n/a	n/a	n/a	n/a	n/a
244.5936	1	9	n/a	n/a	1	n/a	n/a	n/a	n/a	n/a	n/a	n/a	n/a
245.6102	1	10	1	2572	1	0	1	0	0	0	0.4	0.4	9
248.1934	1	20	n/a	n/a	1	n/a	n/a	n/a	n/a	n/a	n/a	n/a	n/a
250.8864	1	80	n/a	n/a	1	n/a	n/a	n/a	n/a	n/a	n/a	n/a	n/a
250.9864	1	80	n/a	n/a	1	n/a	n/a	n/a	n/a	n/a	n/a	n/a	n/a
251.3932	1	31	n/a	n/a	1	n/a	n/a	n/a	n/a	n/a	n/a	n/a	n/a
255.4096	1	9	n/a	n/a	1	n/a	n/a	n/a	n/a	n/a	n/a	n/a	n/a
256.4262	1	10	1	2860	1	0	1	0	0	0	0.6	0.6	10
259.2926	1	20	n/a	n/a	1	n/a	n/a	n/a	n/a	n/a	n/a	n/a	n/a
262.0406	1	80	n/a	n/a	1	n/a	n/a	n/a	n/a	n/a	n/a	n/a	n/a
262.1406	1	80	n/a	n/a	1	n/a	n/a	n/a	n/a	n/a	n/a	n/a	n/a
262.5424	1	31	n/a	n/a	1	n/a	n/a	n/a	n/a	n/a	n/a	n/a	n/a
269.5588	1	9	n/a	n/a	1	n/a	n/a	n/a	n/a	n/a	n/a	n/a	n/a
270.5754	1	10	1	3895	1	0	1	0	0.7	0.32193	0.7	0.75116	11
274.4752	1	20	n/a	n/a	1	n/a	n/a	n/a	n/a	n/a	n/a	n/a	n/a
277.4342	1	80	n/a	n/a	1	n/a	n/a	n/a	n/a	n/a	n/a	n/a	n/a
277.534	1	80	n/a	n/a	1	n/a	n/a	n/a	n/a	n/a	n/a	n/a	n/a
277.9416	1	31	n/a	n/a	1	n/a	n/a	n/a	n/a	n/a	n/a	n/a	n/a
281.958	1	40	n/a	n/a	1	n/a	n/a	n/a	n/a	n/a	n/a	n/a	n/a
283.9746	1	9	n/a	n/a	1	n/a	n/a	n/a	n/a	n/a	n/a	n/a	n/a
284.9912	1	10	2	2439	1	0	1	0	0.8	0.55984	0.4	0.23937	12
287.441	1	20	n/a	n/a	1	n/a	n/a	n/a	n/a	n/a	n/a	n/a	n/a
289.947	1	80	n/a	n/a	1	n/a	n/a	n/a	n/a	n/a	n/a	n/a	n/a
290.047	1	80	n/a	n/a	1	n/a	n/a	n/a	n/a	n/a	n/a	n/a	n/a
290.4574	1	31	n/a	n/a	1	n/a	n/a	n/a	n/a	n/a	n/a	n/a	n/a
294.474	1	40	n/a	n/a	1	n/a	n/a	n/a	n/a	n/a	n/a	n/a	n/a
296.4904	1	9	n/a	n/a	1	n/a	n/a	n/a	n/a	n/a	n/a	n/a	n/a
297.507	1	10	1	3155	1	0	1	0	0.4	0.41291	0.7	0.77527	13
300.6736	1	20	n/a	n/a	1	n/a	n/a	n/a	n/a	n/a	n/a	n/a	n/a
304.3936	1	80	n/a	n/a	1	n/a	n/a	n/a	n/a	n/a	n/a	n/a	n/a
304.4936	1	80	n/a	n/a	1	n/a	n/a	n/a	n/a	n/a	n/a	n/a	n/a
304.9066	1	31	n/a	n/a	1	n/a	n/a	n/a	n/a	n/a	n/a	n/a	n/a
308.923	1	40	n/a	n/a	1	n/a	n/a	n/a	n/a	n/a	n/a	n/a	n/a
310.9396	1	9	n/a	n/a	1	n/a	n/a	n/a	n/a	n/a	n/a	n/a	n/a
311.9562	1	10	2	2337	1	0	1	0	0.8	0.67486	0.5	0.9375	14
314.306	1	20	n/a	n/a	1	n/a	n/a	n/a	n/a	n/a	n/a	n/a	n/a
318.487	1	80	n/a	n/a	1	n/a	n/a	n/a	n/a	n/a	n/a	n/a	n/a
318.587	1	80	n/a	n/a	1	n/a	n/a	n/a	n/a	n/a	n/a	n/a	n/a
318.9892	1	30	n/a	n/a	1	n/a	n/a	n/a	n/a	n/a	n/a	n/a	n/a
323.0056	1	40	n/a	n/a	1	n/a	n/a	n/a	n/a	n/a	n/a	n/a	n/a
325.022	1	9	n/a	n/a	1	n/a	n/a	n/a	n/a	n/a	n/a	n/a	n/a
326.0386	1	10	2	2094	1	0	1	0	0.5	0.23448	0.4	0.03448	15
328.1386	1	20	n/a	n/a	1	n/a	n/a	n/a	n/a	n/a	n/a	n/a	n/a
332.6316	1	80	n/a	n/a	1	n/a	n/a	n/a	n/a	n/a	n/a	n/a	n/a
332.7316	1	80	n/a	n/a	1	n/a	n/a	n/a	n/a	n/a	n/a	n/a	n/a
333.1382	1	30	n/a	n/a	1	n/a	n/a	n/a	n/a	n/a	n/a	n/a	n/a
337.1546	1	40	n/a	n/a	1	n/a	n/a	n/a	n/a	n/a	n/a	n/a	n/a
339.1712	1	9	n/a	n/a	1	n/a	n/a	n/a	n/a	n/a	n/a	n/a	n/a
340.1878	1	10	1	1833	1	0	1	0	0.7	0.40713	0.5	0.2833	16
342.0378	1	20	n/a	n/a	1	n/a	n/a	n/a	n/a	n/a	n/a	n/a	n/a
345.6948	1	80	n/a	n/a	1	n/a	n/a	n/a	n/a	n/a	n/a	n/a	n/a
345.7948	1	80	n/a	n/a	1	n/a	n/a	n/a	n/a	n/a	n/a	n/a	n/a
346.2042	1	31	n/a	n/a	1	n/a	n/a	n/a	n/a	n/a	n/a	n/a	n/a
350.2206	1	40	n/a	n/a	1	n/a	n/a	n/a	n/a	n/a	n/a	n/a	n/a
352.2372	1	9	n/a	n/a	1	n/a	n/a	n/a	n/a	n/a	n/a	n/a	n/a
353.2538	1	10	1	2079	1	0	1	0	0.8	0.22725	0.8	0.90899	17
355.337	1	20	n/a	n/a	1	n/a	n/a	n/a	n/a	n/a	n/a	n/a	n/a
359.011	1	80	n/a	n/a	1	n/a	n/a	n/a	n/a	n/a	n/a	n/a	n/a
359.111	1	80	n/a	n/a	1	n/a	n/a	n/a	n/a	n/a	n/a	n/a	n/a
359.52	1	30	n/a	n/a	1	n/a	n/a	n/a	n/a	n/a	n/a	n/a	n/a
363.5364	1	40	n/a	n/a	1	n/a	n/a	n/a	n/a	n/a	n/a	n/a	n/a
365.553	1	9	n/a	n/a	1	n/a	n/a	n/a	n/a	n/a	n/a	n/a	n/a
366.5696	1	10	2	1594	1	0	1	0	0.8	0.91477	0.2	0.65907	18
368.1696	1	20	n/a	n/a	1	n/a	n/a	n/a	n/a	n/a	n/a	n/a	n/a
372.1364	1	80	n/a	n/a	1	n/a	n/a	n/a	n/a	n/a	n/a	n/a	n/a
372.2364	1	80	n/a	n/a	1	n/a	n/a	n/a	n/a	n/a	n/a	n/a	n/a
372.6526	1	31	n/a	n/a	1	n/a	n/a	n/a	n/a	n/a	n/a	n/a	n/a
376.669	1	40	n/a	n/a	1	n/a	n/a	n/a	n/a	n/a	n/a	n/a	n/a
378.6856	1	9	n/a	n/a	1	n/a	n/a	n/a	n/a	n/a	n/a	n/a	n/a
379.7022	1	10	2	1133	1	0	1	0	0.7	0.37673	0.5	0.21237	19
380.852	1	20	n/a	n/a	1	n/a	n/a	n/a	n/a	n/a	n/a	n/a	n/a
385.238	1	80	n/a	n/a	1	n/a	n/a	n/a	n/a	n/a	n/a	n/a	n/a
385.338	1	80	n/a	n/a	1	n/a	n/a	n/a	n/a	n/a	n/a	n/a	n/a
385.7518	1	30	n/a	n/a	1	n/a	n/a	n/a	n/a	n/a	n/a	n/a	n/a
389.7682	1	40	n/a	n/a	1	n/a	n/a	n/a	n/a	n/a	n/a	n/a	n/a
391.7848	1	9	n/a	n/a	1	n/a	n/a	n/a	n/a	n/a	n/a	n/a	n/a
392.8014	1	10	2	1586	1	0	1	0	0.4	0.32822	0.3	0.052149	20
394.4012	1	20	n/a	n/a	1	n/a	n/a	n/a	n/a	n/a	n/a	n/a	n/a
397.8902	1	80	n/a	n/a	1	n/a	n/a	n/a	n/a	n/a	n/a	n/a	n/a
397.9902	1	80	n/a	n/a	1	n/a	n/a	n/a	n/a	n/a	n/a	n/a	n/a
398.401	1	31	n/a	n/a	1	n/a	n/a	n/a	n/a	n/a	n/a	n/a	n/a
402.4174	1	40	n/a	n/a	1	n/a	n/a	n/a	n/a	n/a	n/a	n/a	n/a
407.4338	1	9	n/a	n/a	1	n/a	n/a	n/a	n/a	n/a	n/a	n/a	n/a
408.4504	1	10	2	1729	1	0	1	0	0	0	0.2	0.2	21
410.1836	1	20	n/a	n/a	1	n/a	n/a	n/a	n/a	n/a	n/a	n/a	n/a
414.2386	1	80	n/a	n/a	1	n/a	n/a	n/a	n/a	n/a	n/a	n/a	n/a
414.3386	1	80	n/a	n/a	1	n/a	n/a	n/a	n/a	n/a	n/a	n/a	n/a
414.75	1	31	n/a	n/a	1	n/a	n/a	n/a	n/a	n/a	n/a	n/a	n/a
418.7664	1	9	n/a	n/a	1	n/a	n/a	n/a	n/a	n/a	n/a	n/a	n/a
419.783	1	10	2	2620	1	0	1	0	0	0	0.5	0.5	22
422.4162	1	20	n/a	n/a	1	n/a	n/a	n/a	n/a	n/a	n/a	n/a	n/a
426.8092	1	80	n/a	n/a	1	n/a	n/a	n/a	n/a	n/a	n/a	n/a	n/a
426.9092	1	80	n/a	n/a	1	n/a	n/a	n/a	n/a	n/a	n/a	n/a	n/a
427.316	1	30	n/a	n/a	1	n/a	n/a	n/a	n/a	n/a	n/a	n/a	n/a
431.3324	1	9	n/a	n/a	1	n/a	n/a	n/a	n/a	n/a	n/a	n/a	n/a
432.349	1	10	2	1301	1	0	1	0	0	0	0.3	0.3	23
433.6656	1	20	n/a	n/a	1	n/a	n/a	n/a	n/a	n/a	n/a	n/a	n/a
437.2276	1	80	n/a	n/a	1	n/a	n/a	n/a	n/a	n/a	n/a	n/a	n/a
437.3276	1	80	n/a	n/a	1	n/a	n/a	n/a	n/a	n/a	n/a	n/a	n/a
437.732	1	31	n/a	n/a	1	n/a	n/a	n/a	n/a	n/a	n/a	n/a	n/a
441.7484	1	9	n/a	n/a	1	n/a	n/a	n/a	n/a	n/a	n/a	n/a	n/a
442.765	1	10	1	1749	1	0	1	0	0	0	0.5	0.5	24
444.5316	1	20	n/a	n/a	1	n/a	n/a	n/a	n/a	n/a	n/a	n/a	n/a
448.1356	1	80	n/a	n/a	1	n/a	n/a	n/a	n/a	n/a	n/a	n/a	n/a
448.2356	1	80	n/a	n/a	1	n/a	n/a	n/a	n/a	n/a	n/a	n/a	n/a
448.648	1	30	n/a	n/a	1	n/a	n/a	n/a	n/a	n/a	n/a	n/a	n/a
452.6644	1	9	n/a	n/a	1	n/a	n/a	n/a	n/a	n/a	n/a	n/a	n/a
453.681	1	10	1	1457	1	0	1	0	0	0	0.6	0.6	25
455.1476	1	20	n/a	n/a	1	n/a	n/a	n/a	n/a	n/a	n/a	n/a	n/a
458.7306	1	80	n/a	n/a	1	n/a	n/a	n/a	n/a	n/a	n/a	n/a	n/a
458.8306	1	80	n/a	n/a	1	n/a	n/a	n/a	n/a	n/a	n/a	n/a	n/a
459.2474	1	31	n/a	n/a	1	n/a	n/a	n/a	n/a	n/a	n/a	n/a	n/a
463.2638	1	9	n/a	n/a	1	n/a	n/a	n/a	n/a	n/a	n/a	n/a	n/a
464.2804	1	10	1	1994	1	0	1	0	0	0	0.8	0.8	26
466.2802	1	20	n/a	n/a	1	n/a	n/a	n/a	n/a	n/a	n/a	n/a	n/a
469.1432	1	80	n/a	n/a	1	n/a	n/a	n/a	n/a	n/a	n/a	n/a	n/a
469.2432	1	80	n/a	n/a	1	n/a	n/a	n/a	n/a	n/a	n/a	n/a	n/a
469.6468	1	30	n/a	n/a	1	n/a	n/a	n/a	n/a	n/a	n/a	n/a	n/a
473.6632	1	9	n/a	n/a	1	n/a	n/a	n/a	n/a	n/a	n/a	n/a	n/a
474.6798	1	10	1	1242	1	0	1	0	0	0	0.9	0.9	27
475.9298	1	20	n/a	n/a	1	n/a	n/a	n/a	n/a	n/a	n/a	n/a	n/a
479.9678	1	80	n/a	n/a	1	n/a	n/a	n/a	n/a	n/a	n/a	n/a	n/a
480.0678	1	80	n/a	n/a	1	n/a	n/a	n/a	n/a	n/a	n/a	n/a	n/a
480.4794	1	31	n/a	n/a	1	n/a	n/a	n/a	n/a	n/a	n/a	n/a	n/a
484.4958	1	9	n/a	n/a	1	n/a	n/a	n/a	n/a	n/a	n/a	n/a	n/a
485.5124	1	10	1	2329	1	0	1	0	0	0	0.4	0.4	28
487.8456	1	20	n/a	n/a	1	n/a	n/a	n/a	n/a	n/a	n/a	n/a	n/a
491.4946	1	80	n/a	n/a	1	n/a	n/a	n/a	n/a	n/a	n/a	n/a	n/a
491.5946	1	80	n/a	n/a	1	n/a	n/a	n/a	n/a	n/a	n/a	n/a	n/a
492.012	1	30	n/a	n/a	1	n/a	n/a	n/a	n/a	n/a	n/a	n/a	n/a
496.0286	1	9	n/a	n/a	1	n/a	n/a	n/a	n/a	n/a	n/a	n/a	n/a
497.0452	1	10	2	828	1	0	1	0	0	0	0.2	0.2	29
497.8784	1	20	n/a	n/a	1	n/a	n/a	n/a	n/a	n/a	n/a	n/a	n/a
502.2824	1	80	n/a	n/a	1	n/a	n/a	n/a	n/a	n/a	n/a	n/a	n/a
502.3824	1	80	n/a	n/a	1	n/a	n/a	n/a	n/a	n/a	n/a	n/a	n/a
502.7948	1	31	n/a	n/a	1	n/a	n/a	n/a	n/a	n/a	n/a	n/a	n/a
506.8112	1	9	n/a	n/a	1	n/a	n/a	n/a	n/a	n/a	n/a	n/a	n/a
507.8278	1	10	1	1005	1	0	1	0	0	0	0.9	0.9	30
508.8444	1	20	n/a	n/a	1	n/a	n/a	n/a	n/a	n/a	n/a	n/a	n/a
512.6544	1	80	n/a	n/a	1	n/a	n/a	n/a	n/a	n/a	n/a	n/a	n/a
512.7544	1	80	n/a	n/a	1	n/a	n/a	n/a	n/a	n/a	n/a	n/a	n/a
513.1608	1	31	n/a	n/a	1	n/a	n/a	n/a	n/a	n/a	n/a	n/a	n/a
520.177	1	9	n/a	n/a	1	n/a	n/a	n/a	n/a	n/a	n/a	n/a	n/a
521.1936	1	10	2	2071	1	0	1	0	0.8	0.86617	0.8	0.9375	31
523.2768	1	20	n/a	n/a	1	n/a	n/a	n/a	n/a	n/a	n/a	n/a	n/a
526.6428	1	80	n/a	n/a	1	n/a	n/a	n/a	n/a	n/a	n/a	n/a	n/a
526.7428	1	80	n/a	n/a	1	n/a	n/a	n/a	n/a	n/a	n/a	n/a	n/a
527.16	1	30	n/a	n/a	1	n/a	n/a	n/a	n/a	n/a	n/a	n/a	n/a
531.1764	1	40	n/a	n/a	1	n/a	n/a	n/a	n/a	n/a	n/a	n/a	n/a
533.193	1	9	n/a	n/a	1	n/a	n/a	n/a	n/a	n/a	n/a	n/a	n/a
534.2096	1	10	1	1983	1	0	1	0	0.8	0.65993	0.8	0.9375	32
536.2094	1	20	n/a	n/a	1	n/a	n/a	n/a	n/a	n/a	n/a	n/a	n/a
540.2964	1	80	n/a	n/a	1	n/a	n/a	n/a	n/a	n/a	n/a	n/a	n/a
540.3964	1	80	n/a	n/a	1	n/a	n/a	n/a	n/a	n/a	n/a	n/a	n/a
540.8092	1	31	n/a	n/a	1	n/a	n/a	n/a	n/a	n/a	n/a	n/a	n/a
544.8256	1	40	n/a	n/a	1	n/a	n/a	n/a	n/a	n/a	n/a	n/a	n/a
546.8422	1	9	n/a	n/a	1	n/a	n/a	n/a	n/a	n/a	n/a	n/a	n/a
547.8588	1	10	2	1918	1	0	1	0	0.5	0.61136	0.4	0.41136	33
549.792	1	20	n/a	n/a	1	n/a	n/a	n/a	n/a	n/a	n/a	n/a	n/a
554.106	1	80	n/a	n/a	1	n/a	n/a	n/a	n/a	n/a	n/a	n/a	n/a
554.206	1	80	n/a	n/a	1	n/a	n/a	n/a	n/a	n/a	n/a	n/a	n/a
554.6084	1	31	n/a	n/a	1	n/a	n/a	n/a	n/a	n/a	n/a	n/a	n/a
558.6248	1	40	n/a	n/a	1	n/a	n/a	n/a	n/a	n/a	n/a	n/a	n/a
560.6414	1	9	n/a	n/a	1	n/a	n/a	n/a	n/a	n/a	n/a	n/a	n/a
561.658	1	10	2	1333	1	0	1	0	0.7	0.18893	0.7	0.44083	34
563.0078	1	20	n/a	n/a	1	n/a	n/a	n/a	n/a	n/a	n/a	n/a	n/a
565.9088	1	80	n/a	n/a	1	n/a	n/a	n/a	n/a	n/a	n/a	n/a	n/a
566.0088	1	80	n/a	n/a	1	n/a	n/a	n/a	n/a	n/a	n/a	n/a	n/a
566.4242	1	30	n/a	n/a	1	n/a	n/a	n/a	n/a	n/a	n/a	n/a	n/a
570.4408	1	40	n/a	n/a	1	n/a	n/a	n/a	n/a	n/a	n/a	n/a	n/a
572.4572	1	9	n/a	n/a	1	n/a	n/a	n/a	n/a	n/a	n/a	n/a	n/a
573.4738	1	10	2	2797	1	0	1	0	0.7	0.37064	0.1	0.041667	35
576.2738	1	20	n/a	n/a	1	n/a	n/a	n/a	n/a	n/a	n/a	n/a	n/a
580.6126	1	80	n/a	n/a	1	n/a	n/a	n/a	n/a	n/a	n/a	n/a	n/a
580.7126	1	80	n/a	n/a	1	n/a	n/a	n/a	n/a	n/a	n/a	n/a	n/a
581.1234	1	31	n/a	n/a	1	n/a	n/a	n/a	n/a	n/a	n/a	n/a	n/a
585.1398	1	40	n/a	n/a	1	n/a	n/a	n/a	n/a	n/a	n/a	n/a	n/a
587.1564	1	9	n/a	n/a	1	n/a	n/a	n/a	n/a	n/a	n/a	n/a	n/a
588.173	1	10	1	1746	1	0	1	0	0.6	0.77083	0.2	0.15624	36
589.9228	1	20	n/a	n/a	1	n/a	n/a	n/a	n/a	n/a	n/a	n/a	n/a
592.5368	1	80	n/a	n/a	1	n/a	n/a	n/a	n/a	n/a	n/a	n/a	n/a
592.6368	1	80	n/a	n/a	1	n/a	n/a	n/a	n/a	n/a	n/a	n/a	n/a
593.0394	1	30	n/a	n/a	1	n/a	n/a	n/a	n/a	n/a	n/a	n/a	n/a
597.0558	1	40	n/a	n/a	1	n/a	n/a	n/a	n/a	n/a	n/a	n/a	n/a
599.0724	1	9	n/a	n/a	1	n/a	n/a	n/a	n/a	n/a	n/a	n/a	n/a
600.089	1	10	1	2790	1	0	1	0	0.7	0.81661	0.3	0.5721	37
602.8888	1	20	n/a	n/a	1	n/a	n/a	n/a	n/a	n/a	n/a	n/a	n/a
606.5878	1	80	n/a	n/a	1	n/a	n/a	n/a	n/a	n/a	n/a	n/a	n/a
606.6878	1	80	n/a	n/a	1	n/a	n/a	n/a	n/a	n/a	n/a	n/a	n/a
607.1052	1	30	n/a	n/a	1	n/a	n/a	n/a	n/a	n/a	n/a	n/a	n/a
611.1216	1	40	n/a	n/a	1	n/a	n/a	n/a	n/a	n/a	n/a	n/a	n/a
613.1382	1	9	n/a	n/a	1	n/a	n/a	n/a	n/a	n/a	n/a	n/a	n/a
614.1548	1	10	1	1476	1	0	1	0	0.5	0.73868	0.3	0.33868	38
615.638	1	20	n/a	n/a	1	n/a	n/a	n/a	n/a	n/a	n/a	n/a	n/a
619.376	1	80	n/a	n/a	1	n/a	n/a	n/a	n/a	n/a	n/a	n/a	n/a
619.476	1	80	n/a	n/a	1	n/a	n/a	n/a	n/a	n/a	n/a	n/a	n/a
619.8878	1	30	n/a	n/a	1	n/a	n/a	n/a	n/a	n/a	n/a	n/a	n/a
623.9042	1	40	n/a	n/a	1	n/a	n/a	n/a	n/a	n/a	n/a	n/a	n/a
625.9208	1	9	n/a	n/a	1	n/a	n/a	n/a	n/a	n/a	n/a	n/a	n/a
626.9374	1	10	2	3044	1	0	1	0	0.4	0.94828	0.1	0.13219	39
629.9872	1	20	n/a	n/a	1	n/a	n/a	n/a	n/a	n/a	n/a	n/a	n/a
633.3702	1	80	n/a	n/a	1	n/a	n/a	n/a	n/a	n/a	n/a	n/a	n/a
633.4702	1	80	n/a	n/a	1	n/a	n/a	n/a	n/a	n/a	n/a	n/a	n/a
633.887	1	31	n/a	n/a	1	n/a	n/a	n/a	n/a	n/a	n/a	n/a	n/a
637.9034	1	40	n/a	n/a	1	n/a	n/a	n/a	n/a	n/a	n/a	n/a	n/a
639.9198	1	9	n/a	n/a	1	n/a	n/a	n/a	n/a	n/a	n/a	n/a	n/a
640.9366	1	10	2	2213	1	0	1	0	0.6	0.82256	0.2	0.23385	40
643.153	1	20	n/a	n/a	1	n/a	n/a	n/a	n/a	n/a	n/a	n/a	n/a
646.147	1	80	n/a	n/a	1	n/a	n/a	n/a	n/a	n/a	n/a	n/a	n/a
646.247	1	80	n/a	n/a	1	n/a	n/a	n/a	n/a	n/a	n/a	n/a	n/a
646.6528	1	31	n/a	n/a	1	n/a	n/a	n/a	n/a	n/a	n/a	n/a	n/a
650.6692	1	40	n/a	n/a	1	n/a	n/a	n/a	n/a	n/a	n/a	n/a	n/a
655.6856	1	9	n/a	n/a	1	n/a	n/a	n/a	n/a	n/a	n/a	n/a	n/a
656.7022	1	10	2	6959	1	0	1	0	0	0	0.4	0.4	41
663.6684	1	20	n/a	n/a	1	n/a	n/a	n/a	n/a	n/a	n/a	n/a	n/a
666.7754	1	80	n/a	n/a	1	n/a	n/a	n/a	n/a	n/a	n/a	n/a	n/a
666.8754	1	80	n/a	n/a	1	n/a	n/a	n/a	n/a	n/a	n/a	n/a	n/a
667.285	1	30	n/a	n/a	1	n/a	n/a	n/a	n/a	n/a	n/a	n/a	n/a
671.3014	1	9	n/a	n/a	1	n/a	n/a	n/a	n/a	n/a	n/a	n/a	n/a
672.318	1	10	1	1407	1	0	1	0	0	0	0.7	0.7	42
673.7346	1	20	n/a	n/a	1	n/a	n/a	n/a	n/a	n/a	n/a	n/a	n/a
677.7936	1	80	n/a	n/a	1	n/a	n/a	n/a	n/a	n/a	n/a	n/a	n/a
677.8936	1	80	n/a	n/a	1	n/a	n/a	n/a	n/a	n/a	n/a	n/a	n/a
678.301	1	31	n/a	n/a	1	n/a	n/a	n/a	n/a	n/a	n/a	n/a	n/a
682.3174	1	9	n/a	n/a	1	n/a	n/a	n/a	n/a	n/a	n/a	n/a	n/a
683.334	1	10	2	3574	1	0	1	0	0	0	0.5	0.5	43
686.917	1	20	n/a	n/a	1	n/a	n/a	n/a	n/a	n/a	n/a	n/a	n/a
690.55	1	80	n/a	n/a	1	n/a	n/a	n/a	n/a	n/a	n/a	n/a	n/a
690.65	1	80	n/a	n/a	1	n/a	n/a	n/a	n/a	n/a	n/a	n/a	n/a
691.0668	1	30	n/a	n/a	1	n/a	n/a	n/a	n/a	n/a	n/a	n/a	n/a
695.0832	1	9	n/a	n/a	1	n/a	n/a	n/a	n/a	n/a	n/a	n/a	n/a
696.0998	1	10	1	840	1	0	1	0	0	0	0.9	0.9	44
696.9498	1	20	n/a	n/a	1	n/a	n/a	n/a	n/a	n/a	n/a	n/a	n/a
700.4618	1	80	n/a	n/a	1	n/a	n/a	n/a	n/a	n/a	n/a	n/a	n/a
700.5618	1	80	n/a	n/a	1	n/a	n/a	n/a	n/a	n/a	n/a	n/a	n/a
700.9662	1	31	n/a	n/a	1	n/a	n/a	n/a	n/a	n/a	n/a	n/a	n/a
704.9826	1	9	n/a	n/a	1	n/a	n/a	n/a	n/a	n/a	n/a	n/a	n/a
705.9992	1	10	2	1181	1	0	1	0	0	0	0.2	0.2	45
707.1992	1	20	n/a	n/a	1	n/a	n/a	n/a	n/a	n/a	n/a	n/a	n/a
711.5382	1	80	n/a	n/a	1	n/a	n/a	n/a	n/a	n/a	n/a	n/a	n/a
711.6382	1	80	n/a	n/a	1	n/a	n/a	n/a	n/a	n/a	n/a	n/a	n/a
712.049	1	31	n/a	n/a	1	n/a	n/a	n/a	n/a	n/a	n/a	n/a	n/a
716.0654	1	9	n/a	n/a	1	n/a	n/a	n/a	n/a	n/a	n/a	n/a	n/a
717.082	1	10	2	3986	1	0	1	0	0	0	0.2	0.2	46
721.0818	1	20	n/a	n/a	1	n/a	n/a	n/a	n/a	n/a	n/a	n/a	n/a
725.5566	1	80	n/a	n/a	1	n/a	n/a	n/a	n/a	n/a	n/a	n/a	n/a
725.6566	1	80	n/a	n/a	1	n/a	n/a	n/a	n/a	n/a	n/a	n/a	n/a
726.0648	1	30	n/a	n/a	1	n/a	n/a	n/a	n/a	n/a	n/a	n/a	n/a
730.0812	1	9	n/a	n/a	1	n/a	n/a	n/a	n/a	n/a	n/a	n/a	n/a
731.0978	1	10	1	1906	1	0	1	0	0	0	0.3	0.3	47
733.0144	1	20	n/a	n/a	1	n/a	n/a	n/a	n/a	n/a	n/a	n/a	n/a
737.1404	1	80	n/a	n/a	1	n/a	n/a	n/a	n/a	n/a	n/a	n/a	n/a
737.2404	1	80	n/a	n/a	1	n/a	n/a	n/a	n/a	n/a	n/a	n/a	n/a
737.6474	1	30	n/a	n/a	1	n/a	n/a	n/a	n/a	n/a	n/a	n/a	n/a
741.6638	1	9	n/a	n/a	1	n/a	n/a	n/a	n/a	n/a	n/a	n/a	n/a
742.6804	1	10	1	595	1	0	1	0	0	0	0.9	0.9	48
743.2804	1	20	n/a	n/a	1	n/a	n/a	n/a	n/a	n/a	n/a	n/a	n/a
747.3834	1	80	n/a	n/a	1	n/a	n/a	n/a	n/a	n/a	n/a	n/a	n/a
747.4834	1	80	n/a	n/a	1	n/a	n/a	n/a	n/a	n/a	n/a	n/a	n/a
747.8968	1	31	n/a	n/a	1	n/a	n/a	n/a	n/a	n/a	n/a	n/a	n/a
751.9132	1	9	n/a	n/a	1	n/a	n/a	n/a	n/a	n/a	n/a	n/a	n/a
752.9298	1	10	1	841	1	0	1	0	0	0	0.6	0.6	49
753.7798	1	20	n/a	n/a	1	n/a	n/a	n/a	n/a	n/a	n/a	n/a	n/a
757.6028	1	80	n/a	n/a	1	n/a	n/a	n/a	n/a	n/a	n/a	n/a	n/a
757.7028	1	80	n/a	n/a	1	n/a	n/a	n/a	n/a	n/a	n/a	n/a	n/a
758.1128	1	31	n/a	n/a	1	n/a	n/a	n/a	n/a	n/a	n/a	n/a	n/a
762.1292	1	9	n/a	n/a	1	n/a	n/a	n/a	n/a	n/a	n/a	n/a	n/a
763.1458	1	10	2	577	1	0	1	0	0	0	0.3	0.3	50
763.7292	1	20	n/a	n/a	1	n/a	n/a	n/a	n/a	n/a	n/a	n/a	n/a
768.0262	1	80	n/a	n/a	1	n/a	n/a	n/a	n/a	n/a	n/a	n/a	n/a
768.1262	1	80	n/a	n/a	1	n/a	n/a	n/a	n/a	n/a	n/a	n/a	n/a
768.5288	1	31	n/a	n/a	1	n/a	n/a	n/a	n/a	n/a	n/a	n/a	n/a
775.5452	1	9	n/a	n/a	1	n/a	n/a	n/a	n/a	n/a	n/a	n/a	n/a
776.5618	1	10	2	1097	1	0	1	0	0.4	0.31305	0.1	0.020833	51
777.6616	1	20	n/a	n/a	1	n/a	n/a	n/a	n/a	n/a	n/a	n/a	n/a
780.5376	1	80	n/a	n/a	1	n/a	n/a	n/a	n/a	n/a	n/a	n/a	n/a
780.6376	1	80	n/a	n/a	1	n/a	n/a	n/a	n/a	n/a	n/a	n/a	n/a
781.0448	1	31	n/a	n/a	1	n/a	n/a	n/a	n/a	n/a	n/a	n/a	n/a
785.0612	1	40	n/a	n/a	1	n/a	n/a	n/a	n/a	n/a	n/a	n/a	n/a
787.0778	1	9	n/a	n/a	1	n/a	n/a	n/a	n/a	n/a	n/a	n/a	n/a
788.0944	1	10	2	796	1	0	1	0	0.4	0.064103	0.5	0.2094	52
788.8944	1	20	n/a	n/a	1	n/a	n/a	n/a	n/a	n/a	n/a	n/a	n/a
791.8282	1	80	n/a	n/a	1	n/a	n/a	n/a	n/a	n/a	n/a	n/a	n/a
791.9282	1	80	n/a	n/a	1	n/a	n/a	n/a	n/a	n/a	n/a	n/a	n/a
792.344	1	30	n/a	n/a	1	n/a	n/a	n/a	n/a	n/a	n/a	n/a	n/a
796.3606	1	40	n/a	n/a	1	n/a	n/a	n/a	n/a	n/a	n/a	n/a	n/a
798.377	1	9	n/a	n/a	1	n/a	n/a	n/a	n/a	n/a	n/a	n/a	n/a
799.3936	1	10	1	1097	1	0	1	0	0.4	0.065717	0.9	0.87714	53
800.4936	1	20	n/a	n/a	1	n/a	n/a	n/a	n/a	n/a	n/a	n/a	n/a
804.0326	1	80	n/a	n/a	1	n/a	n/a	n/a	n/a	n/a	n/a	n/a	n/a
804.1326	1	80	n/a	n/a	1	n/a	n/a	n/a	n/a	n/a	n/a	n/a	n/a
804.5434	1	31	n/a	n/a	1	n/a	n/a	n/a	n/a	n/a	n/a	n/a	n/a
808.5598	1	40	n/a	n/a	1	n/a	n/a	n/a	n/a	n/a	n/a	n/a	n/a
810.5764	1	9	n/a	n/a	1	n/a	n/a	n/a	n/a	n/a	n/a	n/a	n/a
811.593	1	10	1	1792	1	0	1	0	0.5	0.3582	0.7	0.7582	54
813.3928	1	20	n/a	n/a	1	n/a	n/a	n/a	n/a	n/a	n/a	n/a	n/a
816.6708	1	80	n/a	n/a	1	n/a	n/a	n/a	n/a	n/a	n/a	n/a	n/a
816.7708	1	80	n/a	n/a	1	n/a	n/a	n/a	n/a	n/a	n/a	n/a	n/a
817.176	1	31	n/a	n/a	1	n/a	n/a	n/a	n/a	n/a	n/a	n/a	n/a
821.1924	1	40	n/a	n/a	1	n/a	n/a	n/a	n/a	n/a	n/a	n/a	n/a
823.209	1	9	n/a	n/a	1	n/a	n/a	n/a	n/a	n/a	n/a	n/a	n/a
824.2256	1	10	1	2648	1	0	1	0	0.4	0.014846	0.6	0.34323	55
826.892	1	20	n/a	n/a	1	n/a	n/a	n/a	n/a	n/a	n/a	n/a	n/a
830.61	1	80	n/a	n/a	1	n/a	n/a	n/a	n/a	n/a	n/a	n/a	n/a
830.71	1	80	n/a	n/a	1	n/a	n/a	n/a	n/a	n/a	n/a	n/a	n/a
831.1252	1	30	n/a	n/a	1	n/a	n/a	n/a	n/a	n/a	n/a	n/a	n/a
835.1416	1	40	n/a	n/a	1	n/a	n/a	n/a	n/a	n/a	n/a	n/a	n/a
837.158	1	9	n/a	n/a	1	n/a	n/a	n/a	n/a	n/a	n/a	n/a	n/a
838.1746	1	10	2	1563	1	0	1	0	0.8	0.53159	0.4	0.12634	56
839.7412	1	20	n/a	n/a	1	n/a	n/a	n/a	n/a	n/a	n/a	n/a	n/a
842.3822	1	80	n/a	n/a	1	n/a	n/a	n/a	n/a	n/a	n/a	n/a	n/a
842.4822	1	80	n/a	n/a	1	n/a	n/a	n/a	n/a	n/a	n/a	n/a	n/a
842.891	1	30	n/a	n/a	1	n/a	n/a	n/a	n/a	n/a	n/a	n/a	n/a
846.9074	1	40	n/a	n/a	1	n/a	n/a	n/a	n/a	n/a	n/a	n/a	n/a
848.924	1	9	n/a	n/a	1	n/a	n/a	n/a	n/a	n/a	n/a	n/a	n/a
849.9406	1	10	2	996	1	0	1	0	0.7	0.81241	0.1	0.041667	57
850.9406	1	20	n/a	n/a	1	n/a	n/a	n/a	n/a	n/a	n/a	n/a	n/a
853.5146	1	80	n/a	n/a	1	n/a	n/a	n/a	n/a	n/a	n/a	n/a	n/a
853.6146	1	80	n/a	n/a	1	n/a	n/a	n/a	n/a	n/a	n/a	n/a	n/a
854.0238	1	31	n/a	n/a	1	n/a	n/a	n/a	n/a	n/a	n/a	n/a	n/a
858.0402	1	40	n/a	n/a	1	n/a	n/a	n/a	n/a	n/a	n/a	n/a	n/a
860.0568	1	9	n/a	n/a	1	n/a	n/a	n/a	n/a	n/a	n/a	n/a	n/a
861.0734	1	10	1	1512	1	0	1	0	0.4	0.39109	0.8	0.92739	58
862.5898	1	20	n/a	n/a	1	n/a	n/a	n/a	n/a	n/a	n/a	n/a	n/a
866.7718	1	80	n/a	n/a	1	n/a	n/a	n/a	n/a	n/a	n/a	n/a	n/a
866.8718	1	80	n/a	n/a	1	n/a	n/a	n/a	n/a	n/a	n/a	n/a	n/a
867.2896	1	30	n/a	n/a	1	n/a	n/a	n/a	n/a	n/a	n/a	n/a	n/a
871.306	1	40	n/a	n/a	1	n/a	n/a	n/a	n/a	n/a	n/a	n/a	n/a
873.3226	1	9	n/a	n/a	1	n/a	n/a	n/a	n/a	n/a	n/a	n/a	n/a
874.3392	1	10	2	3269	1	0	1	0	0.7	0.91495	0.1	0.13487	59
877.6224	1	20	n/a	n/a	1	n/a	n/a	n/a	n/a	n/a	n/a	n/a	n/a
881.315	1	80	n/a	n/a	1	n/a	n/a	n/a	n/a	n/a	n/a	n/a	n/a
881.415	1	80	n/a	n/a	1	n/a	n/a	n/a	n/a	n/a	n/a	n/a	n/a
881.822	1	31	n/a	n/a	1	n/a	n/a	n/a	n/a	n/a	n/a	n/a	n/a
885.8384	1	40	n/a	n/a	1	n/a	n/a	n/a	n/a	n/a	n/a	n/a	n/a
887.855	1	9	n/a	n/a	1	n/a	n/a	n/a	n/a	n/a	n/a	n/a	n/a
888.8716	1	10	2	1536	1	0	1	0	0.4	0.64721	0.3	0.2648	60
890.4216	1	20	n/a	n/a	1	n/a	n/a	n/a	n/a	n/a	n/a	n/a	n/a
892.9666	1	80	n/a	n/a	1	n/a	n/a	n/a	n/a	n/a	n/a	n/a	n/a
893.0666	1	80	n/a	n/a	1	n/a	n/a	n/a	n/a	n/a	n/a	n/a	n/a
893.4714	1	31	n/a	n/a	1	n/a	n/a	n/a	n/a	n/a	n/a	n/a	n/a
897.4878	1	40	n/a	n/a	1	n/a	n/a	n/a	n/a	n/a	n/a	n/a	n/a
902.5042	1	9	n/a	n/a	1	n/a	n/a	n/a	n/a	n/a	n/a	n/a	n/a
903.5208	1	10	1	1170	1	1	0	0	0	0	0.7	0.7	1
1112.5226	1	80	n/a	n/a	1	n/a	n/a	n/a	n/a	n/a	n/a	n/a	n/a
1112.6226	1	80	n/a	n/a	1	n/a	n/a	n/a	n/a	n/a	n/a	n/a	n/a
1113.0382	1	30	n/a	n/a	1	n/a	n/a	n/a	n/a	n/a	n/a	n/a	n/a
1117.0546	1	9	n/a	n/a	1	n/a	n/a	n/a	n/a	n/a	n/a	n/a	n/a
1118.0712	1	10	1	17389	1	1	0	0	0	0	0.7	0.7	2
1135.4702	1	20	n/a	n/a	1	n/a	n/a	n/a	n/a	n/a	n/a	n/a	n/a
1138.5422	1	80	n/a	n/a	1	n/a	n/a	n/a	n/a	n/a	n/a	n/a	n/a
1138.6422	1	80	n/a	n/a	1	n/a	n/a	n/a	n/a	n/a	n/a	n/a	n/a
1139.0532	1	31	n/a	n/a	1	n/a	n/a	n/a	n/a	n/a	n/a	n/a	n/a
1143.0696	1	9	n/a	n/a	1	n/a	n/a	n/a	n/a	n/a	n/a	n/a	n/a
1144.0862	1	10	2	1325	1	1	0	0	0	0	0.5	0.5	3
1145.4196	1	20	n/a	n/a	1	n/a	n/a	n/a	n/a	n/a	n/a	n/a	n/a
1148.7176	1	80	n/a	n/a	1	n/a	n/a	n/a	n/a	n/a	n/a	n/a	n/a
1148.8176	1	80	n/a	n/a	1	n/a	n/a	n/a	n/a	n/a	n/a	n/a	n/a
1149.2192	1	30	n/a	n/a	1	n/a	n/a	n/a	n/a	n/a	n/a	n/a	n/a
1153.2358	1	9	n/a	n/a	1	n/a	n/a	n/a	n/a	n/a	n/a	n/a	n/a
1154.2524	1	10	2	2023	1	1	0	0	0	0	0.5	0.5	4
1156.2856	1	20	n/a	n/a	1	n/a	n/a	n/a	n/a	n/a	n/a	n/a	n/a
1160.0736	1	80	n/a	n/a	1	n/a	n/a	n/a	n/a	n/a	n/a	n/a	n/a
1160.1736	1	80	n/a	n/a	1	n/a	n/a	n/a	n/a	n/a	n/a	n/a	n/a
1160.5852	1	30	n/a	n/a	1	n/a	n/a	n/a	n/a	n/a	n/a	n/a	n/a
1164.6018	1	9	n/a	n/a	1	n/a	n/a	n/a	n/a	n/a	n/a	n/a	n/a
1165.6184	1	10	2	1633	1	1	0	0	0.4	0.076165	0.4	0.050776	5
1167.2682	1	20	n/a	n/a	1	n/a	n/a	n/a	n/a	n/a	n/a	n/a	n/a
1170.0612	1	80	n/a	n/a	1	n/a	n/a	n/a	n/a	n/a	n/a	n/a	n/a
1170.1612	1	80	n/a	n/a	1	n/a	n/a	n/a	n/a	n/a	n/a	n/a	n/a
1170.568	1	30	n/a	n/a	1	n/a	n/a	n/a	n/a	n/a	n/a	n/a	n/a
1174.5844	1	40	n/a	n/a	1	n/a	n/a	n/a	n/a	n/a	n/a	n/a	n/a
1176.601	1	9	n/a	n/a	1	n/a	n/a	n/a	n/a	n/a	n/a	n/a	n/a
1177.6176	1	10	2	1281	1	1	0	0	0.5	0.20568	0.1	0.025	6
1178.9176	1	20	n/a	n/a	1	n/a	n/a	n/a	n/a	n/a	n/a	n/a	n/a
1182.7658	1	80	n/a	n/a	1	n/a	n/a	n/a	n/a	n/a	n/a	n/a	n/a
1182.8658	1	80	n/a	n/a	1	n/a	n/a	n/a	n/a	n/a	n/a	n/a	n/a
1183.2672	1	31	n/a	n/a	1	n/a	n/a	n/a	n/a	n/a	n/a	n/a	n/a
1187.2836	1	40	n/a	n/a	1	n/a	n/a	n/a	n/a	n/a	n/a	n/a	n/a
1189.3002	1	9	n/a	n/a	1	n/a	n/a	n/a	n/a	n/a	n/a	n/a	n/a
1190.3168	1	10	1	2501	1	1	0	0	0.5	0.30748	0.8	0.90748	7
1192.8334	1	20	n/a	n/a	1	n/a	n/a	n/a	n/a	n/a	n/a	n/a	n/a
1196.8304	1	80	n/a	n/a	1	n/a	n/a	n/a	n/a	n/a	n/a	n/a	n/a
1196.9304	1	80	n/a	n/a	1	n/a	n/a	n/a	n/a	n/a	n/a	n/a	n/a
1197.333	1	31	n/a	n/a	1	n/a	n/a	n/a	n/a	n/a	n/a	n/a	n/a
1201.3496	1	40	n/a	n/a	1	n/a	n/a	n/a	n/a	n/a	n/a	n/a	n/a
1203.366	1	9	n/a	n/a	1	n/a	n/a	n/a	n/a	n/a	n/a	n/a	n/a
1204.3826	1	10	2	1267	1	1	0	0	0.4	0.062469	0.1	0.020833	8
1205.666	1	20	n/a	n/a	1	n/a	n/a	n/a	n/a	n/a	n/a	n/a	n/a
1208.542	1	80	n/a	n/a	1	n/a	n/a	n/a	n/a	n/a	n/a	n/a	n/a
1208.642	1	80	n/a	n/a	1	n/a	n/a	n/a	n/a	n/a	n/a	n/a	n/a
1209.049	1	31	n/a	n/a	1	n/a	n/a	n/a	n/a	n/a	n/a	n/a	n/a
1213.0654	1	40	n/a	n/a	1	n/a	n/a	n/a	n/a	n/a	n/a	n/a	n/a
1215.082	1	9	n/a	n/a	1	n/a	n/a	n/a	n/a	n/a	n/a	n/a	n/a
1216.0986	1	10	1	1247	1	1	0	0	0.5	0.22532	0.6	0.42532	9
1217.3486	1	20	n/a	n/a	1	n/a	n/a	n/a	n/a	n/a	n/a	n/a	n/a
1221.0676	1	80	n/a	n/a	1	n/a	n/a	n/a	n/a	n/a	n/a	n/a	n/a
1221.1676	1	80	n/a	n/a	1	n/a	n/a	n/a	n/a	n/a	n/a	n/a	n/a
1221.5816	1	31	n/a	n/a	1	n/a	n/a	n/a	n/a	n/a	n/a	n/a	n/a
1225.598	1	40	n/a	n/a	1	n/a	n/a	n/a	n/a	n/a	n/a	n/a	n/a
1230.6144	1	9	n/a	n/a	1	n/a	n/a	n/a	n/a	n/a	n/a	n/a	n/a
1231.631	1	10	2	1155	1	1	0	0	0	0	0.3	0.3	10
1232.7976	1	20	n/a	n/a	1	n/a	n/a	n/a	n/a	n/a	n/a	n/a	n/a
1237.1216	1	80	n/a	n/a	1	n/a	n/a	n/a	n/a	n/a	n/a	n/a	n/a
1237.2216	1	80	n/a	n/a	1	n/a	n/a	n/a	n/a	n/a	n/a	n/a	n/a
1237.6306	1	31	n/a	n/a	1	n/a	n/a	n/a	n/a	n/a	n/a	n/a	n/a
1241.647	1	9	n/a	n/a	1	n/a	n/a	n/a	n/a	n/a	n/a	n/a	n/a
1242.6638	1	10	1	809	1	1	0	0	0	0	0.7	0.7	11
1243.4804	1	20	n/a	n/a	1	n/a	n/a	n/a	n/a	n/a	n/a	n/a	n/a
1245.9924	1	80	n/a	n/a	1	n/a	n/a	n/a	n/a	n/a	n/a	n/a	n/a
1246.0924	1	80	n/a	n/a	1	n/a	n/a	n/a	n/a	n/a	n/a	n/a	n/a
1246.4968	1	31	n/a	n/a	1	n/a	n/a	n/a	n/a	n/a	n/a	n/a	n/a
1250.5132	1	9	n/a	n/a	1	n/a	n/a	n/a	n/a	n/a	n/a	n/a	n/a
1251.5298	1	10	1	823	1	1	0	0	0	0	0.8	0.8	12
1252.3632	1	20	n/a	n/a	1	n/a	n/a	n/a	n/a	n/a	n/a	n/a	n/a
1255.0782	1	80	n/a	n/a	1	n/a	n/a	n/a	n/a	n/a	n/a	n/a	n/a
1255.1782	1	80	n/a	n/a	1	n/a	n/a	n/a	n/a	n/a	n/a	n/a	n/a
1255.5796	1	31	n/a	n/a	1	n/a	n/a	n/a	n/a	n/a	n/a	n/a	n/a
1259.596	1	9	n/a	n/a	1	n/a	n/a	n/a	n/a	n/a	n/a	n/a	n/a
1260.6126	1	10	2	828	1	1	0	0	0	0	0.4	0.4	13
1261.446	1	20	n/a	n/a	1	n/a	n/a	n/a	n/a	n/a	n/a	n/a	n/a
1265.8568	1	80	n/a	n/a	1	n/a	n/a	n/a	n/a	n/a	n/a	n/a	n/a
1265.9568	1	80	n/a	n/a	1	n/a	n/a	n/a	n/a	n/a	n/a	n/a	n/a
1266.3622	1	30	n/a	n/a	1	n/a	n/a	n/a	n/a	n/a	n/a	n/a	n/a
1270.3788	1	9	n/a	n/a	1	n/a	n/a	n/a	n/a	n/a	n/a	n/a	n/a
1271.3954	1	10	1	749	1	1	0	0	0	0	0.8	0.8	14
1272.162	1	20	n/a	n/a	1	n/a	n/a	n/a	n/a	n/a	n/a	n/a	n/a
1276.561	1	80	n/a	n/a	1	n/a	n/a	n/a	n/a	n/a	n/a	n/a	n/a
1276.661	1	80	n/a	n/a	1	n/a	n/a	n/a	n/a	n/a	n/a	n/a	n/a
1277.0784	1	31	n/a	n/a	1	n/a	n/a	n/a	n/a	n/a	n/a	n/a	n/a
1281.0948	1	9	n/a	n/a	1	n/a	n/a	n/a	n/a	n/a	n/a	n/a	n/a
1282.1114	1	10	2	2945	1	1	0	0	0.5	0.98143	0.7	0.975	15
1285.0612	1	20	n/a	n/a	1	n/a	n/a	n/a	n/a	n/a	n/a	n/a	n/a
1287.6782	1	80	n/a	n/a	1	n/a	n/a	n/a	n/a	n/a	n/a	n/a	n/a
1287.7782	1	80	n/a	n/a	1	n/a	n/a	n/a	n/a	n/a	n/a	n/a	n/a
1288.1944	1	30	n/a	n/a	1	n/a	n/a	n/a	n/a	n/a	n/a	n/a	n/a
1292.2108	1	40	n/a	n/a	1	n/a	n/a	n/a	n/a	n/a	n/a	n/a	n/a
1294.2272	1	9	n/a	n/a	1	n/a	n/a	n/a	n/a	n/a	n/a	n/a	n/a
1295.2438	1	10	1	1669	1	1	0	0	0.7	0.96666	0.4	0.95833	16
1296.9272	1	20	n/a	n/a	1	n/a	n/a	n/a	n/a	n/a	n/a	n/a	n/a
1300.4312	1	80	n/a	n/a	1	n/a	n/a	n/a	n/a	n/a	n/a	n/a	n/a
1300.5312	1	80	n/a	n/a	1	n/a	n/a	n/a	n/a	n/a	n/a	n/a	n/a
1300.9436	1	30	n/a	n/a	1	n/a	n/a	n/a	n/a	n/a	n/a	n/a	n/a
1304.96	1	40	n/a	n/a	1	n/a	n/a	n/a	n/a	n/a	n/a	n/a	n/a
1306.9766	1	9	n/a	n/a	1	n/a	n/a	n/a	n/a	n/a	n/a	n/a	n/a
1307.9932	1	10	2	1494	1	1	0	0	0.7	0.22875	0.1	0.041667	17
1309.493	1	20	n/a	n/a	1	n/a	n/a	n/a	n/a	n/a	n/a	n/a	n/a
1312.156	1	80	n/a	n/a	1	n/a	n/a	n/a	n/a	n/a	n/a	n/a	n/a
1312.256	1	80	n/a	n/a	1	n/a	n/a	n/a	n/a	n/a	n/a	n/a	n/a
1312.6596	1	31	n/a	n/a	1	n/a	n/a	n/a	n/a	n/a	n/a	n/a	n/a
1316.676	1	40	n/a	n/a	1	n/a	n/a	n/a	n/a	n/a	n/a	n/a	n/a
1318.6924	1	9	n/a	n/a	1	n/a	n/a	n/a	n/a	n/a	n/a	n/a	n/a
1319.709	1	10	2	3106	1	1	0	0	0.8	0.82701	0.4	0.9375	18
1322.8256	1	20	n/a	n/a	1	n/a	n/a	n/a	n/a	n/a	n/a	n/a	n/a
1325.6826	1	80	n/a	n/a	1	n/a	n/a	n/a	n/a	n/a	n/a	n/a	n/a
1325.7826	1	80	n/a	n/a	1	n/a	n/a	n/a	n/a	n/a	n/a	n/a	n/a
1326.192	1	31	n/a	n/a	1	n/a	n/a	n/a	n/a	n/a	n/a	n/a	n/a
1330.2084	1	40	n/a	n/a	1	n/a	n/a	n/a	n/a	n/a	n/a	n/a	n/a
1332.225	1	9	n/a	n/a	1	n/a	n/a	n/a	n/a	n/a	n/a	n/a	n/a
1333.2416	1	10	2	2070	1	1	0	0	0.7	0.061469	0.9	0.81009	19
1335.3248	1	20	n/a	n/a	1	n/a	n/a	n/a	n/a	n/a	n/a	n/a	n/a
1339.5988	1	80	n/a	n/a	1	n/a	n/a	n/a	n/a	n/a	n/a	n/a	n/a
1339.6988	1	80	n/a	n/a	1	n/a	n/a	n/a	n/a	n/a	n/a	n/a	n/a
1340.1078	1	30	n/a	n/a	1	n/a	n/a	n/a	n/a	n/a	n/a	n/a	n/a
1344.1242	1	40	n/a	n/a	1	n/a	n/a	n/a	n/a	n/a	n/a	n/a	n/a
1349.1406	1	9	n/a	n/a	1	n/a	n/a	n/a	n/a	n/a	n/a	n/a	n/a
1350.1572	1	10	2	1826	1	1	0	0	0	0	0.4	0.4	20
1351.9904	1	20	n/a	n/a	1	n/a	n/a	n/a	n/a	n/a	n/a	n/a	n/a
1355.2854	1	80	n/a	n/a	1	n/a	n/a	n/a	n/a	n/a	n/a	n/a	n/a
1355.3854	1	80	n/a	n/a	1	n/a	n/a	n/a	n/a	n/a	n/a	n/a	n/a
1355.7902	1	30	n/a	n/a	1	n/a	n/a	n/a	n/a	n/a	n/a	n/a	n/a
1359.8068	1	9	n/a	n/a	1	n/a	n/a	n/a	n/a	n/a	n/a	n/a	n/a
1360.8232	1	10	2	1416	1	1	0	0	0	0	0.3	0.3	21
1362.2566	1	20	n/a	n/a	1	n/a	n/a	n/a	n/a	n/a	n/a	n/a	n/a
1365.0306	1	80	n/a	n/a	1	n/a	n/a	n/a	n/a	n/a	n/a	n/a	n/a
1365.1306	1	80	n/a	n/a	1	n/a	n/a	n/a	n/a	n/a	n/a	n/a	n/a
1365.5396	1	31	n/a	n/a	1	n/a	n/a	n/a	n/a	n/a	n/a	n/a	n/a
1369.5562	1	9	n/a	n/a	1	n/a	n/a	n/a	n/a	n/a	n/a	n/a	n/a
1370.5728	1	10	1	609	1	1	0	0	0	0	0.7	0.7	22
1371.1894	1	20	n/a	n/a	1	n/a	n/a	n/a	n/a	n/a	n/a	n/a	n/a
1375.2024	1	80	n/a	n/a	1	n/a	n/a	n/a	n/a	n/a	n/a	n/a	n/a
1375.3024	1	80	n/a	n/a	1	n/a	n/a	n/a	n/a	n/a	n/a	n/a	n/a
1375.7058	1	30	n/a	n/a	1	n/a	n/a	n/a	n/a	n/a	n/a	n/a	n/a
1379.7222	1	9	n/a	n/a	1	n/a	n/a	n/a	n/a	n/a	n/a	n/a	n/a
1380.7388	1	10	1	1547	1	1	0	0	0	0	0.4	0.4	23
1382.2886	1	20	n/a	n/a	1	n/a	n/a	n/a	n/a	n/a	n/a	n/a	n/a
1386.3336	1	80	n/a	n/a	1	n/a	n/a	n/a	n/a	n/a	n/a	n/a	n/a
1386.4336	1	80	n/a	n/a	1	n/a	n/a	n/a	n/a	n/a	n/a	n/a	n/a
1386.8384	1	30	n/a	n/a	1	n/a	n/a	n/a	n/a	n/a	n/a	n/a	n/a
1390.8548	1	9	n/a	n/a	1	n/a	n/a	n/a	n/a	n/a	n/a	n/a	n/a
1391.8714	1	10	1	3054	1	1	0	0	0	0	0.5	0.5	24
1394.938	1	20	n/a	n/a	1	n/a	n/a	n/a	n/a	n/a	n/a	n/a	n/a
1398.631	1	80	n/a	n/a	1	n/a	n/a	n/a	n/a	n/a	n/a	n/a	n/a
1398.731	1	80	n/a	n/a	1	n/a	n/a	n/a	n/a	n/a	n/a	n/a	n/a
1399.1376	1	31	n/a	n/a	1	n/a	n/a	n/a	n/a	n/a	n/a	n/a	n/a
1403.154	1	9	n/a	n/a	1	n/a	n/a	n/a	n/a	n/a	n/a	n/a	n/a
1404.1706	1	10	1	1299	1	1	0	0	0.6	0.53049	0.3	0.045729	25
1405.4872	1	20	n/a	n/a	1	n/a	n/a	n/a	n/a	n/a	n/a	n/a	n/a
1409.0422	1	80	n/a	n/a	1	n/a	n/a	n/a	n/a	n/a	n/a	n/a	n/a
1409.1422	1	80	n/a	n/a	1	n/a	n/a	n/a	n/a	n/a	n/a	n/a	n/a
1409.5538	1	30	n/a	n/a	1	n/a	n/a	n/a	n/a	n/a	n/a	n/a	n/a
1413.5702	1	40	n/a	n/a	1	n/a	n/a	n/a	n/a	n/a	n/a	n/a	n/a
1415.5866	1	9	n/a	n/a	1	n/a	n/a	n/a	n/a	n/a	n/a	n/a	n/a
1416.6032	1	10	2	2642	1	1	0	0	0.4	0.3843	0.4	0.2562	26
1419.2532	1	20	n/a	n/a	1	n/a	n/a	n/a	n/a	n/a	n/a	n/a	n/a
1423.2372	1	80	n/a	n/a	1	n/a	n/a	n/a	n/a	n/a	n/a	n/a	n/a
1423.3372	1	80	n/a	n/a	1	n/a	n/a	n/a	n/a	n/a	n/a	n/a	n/a
1423.7528	1	30	n/a	n/a	1	n/a	n/a	n/a	n/a	n/a	n/a	n/a	n/a
1427.7692	1	40	n/a	n/a	1	n/a	n/a	n/a	n/a	n/a	n/a	n/a	n/a
1429.7858	1	9	n/a	n/a	1	n/a	n/a	n/a	n/a	n/a	n/a	n/a	n/a
1430.8024	1	10	2	634	1	1	0	0	0.8	0.27142	0.6	0.085695	27
1431.4524	1	20	n/a	n/a	1	n/a	n/a	n/a	n/a	n/a	n/a	n/a	n/a
1435.6104	1	80	n/a	n/a	1	n/a	n/a	n/a	n/a	n/a	n/a	n/a	n/a
1435.7104	1	80	n/a	n/a	1	n/a	n/a	n/a	n/a	n/a	n/a	n/a	n/a
1436.1188	1	31	n/a	n/a	1	n/a	n/a	n/a	n/a	n/a	n/a	n/a	n/a
1440.1352	1	40	n/a	n/a	1	n/a	n/a	n/a	n/a	n/a	n/a	n/a	n/a
1442.1518	1	9	n/a	n/a	1	n/a	n/a	n/a	n/a	n/a	n/a	n/a	n/a
1443.1684	1	10	1	540	1	1	0	0	0.6	0.80189	0.4	0.70284	28
1443.7184	1	20	n/a	n/a	1	n/a	n/a	n/a	n/a	n/a	n/a	n/a	n/a
1446.5584	1	80	n/a	n/a	1	n/a	n/a	n/a	n/a	n/a	n/a	n/a	n/a
1446.6584	1	80	n/a	n/a	1	n/a	n/a	n/a	n/a	n/a	n/a	n/a	n/a
1447.0682	1	31	n/a	n/a	1	n/a	n/a	n/a	n/a	n/a	n/a	n/a	n/a
1451.0846	1	40	n/a	n/a	1	n/a	n/a	n/a	n/a	n/a	n/a	n/a	n/a
1453.101	1	9	n/a	n/a	1	n/a	n/a	n/a	n/a	n/a	n/a	n/a	n/a
1454.1178	1	10	2	1079	1	1	0	0	0.8	0.60367	0.1	0.0625	29
1455.201	1	20	n/a	n/a	1	n/a	n/a	n/a	n/a	n/a	n/a	n/a	n/a
1459.016	1	80	n/a	n/a	1	n/a	n/a	n/a	n/a	n/a	n/a	n/a	n/a
1459.116	1	80	n/a	n/a	1	n/a	n/a	n/a	n/a	n/a	n/a	n/a	n/a
1459.534	1	31	n/a	n/a	1	n/a	n/a	n/a	n/a	n/a	n/a	n/a	n/a
1463.5338	1	40	n/a	n/a	1	n/a	n/a	n/a	n/a	n/a	n/a	n/a	n/a
1468.5502	1	9	n/a	n/a	1	n/a	n/a	n/a	n/a	n/a	n/a	n/a	n/a
1469.5668	1	10	2	1821	1	1	0	0	0	0	0.6	0.6	30
1471.4	1	20	n/a	n/a	1	n/a	n/a	n/a	n/a	n/a	n/a	n/a	n/a
1474.875	1	80	n/a	n/a	1	n/a	n/a	n/a	n/a	n/a	n/a	n/a	n/a
1474.975	1	80	n/a	n/a	1	n/a	n/a	n/a	n/a	n/a	n/a	n/a	n/a
1475.383	1	31	n/a	n/a	1	n/a	n/a	n/a	n/a	n/a	n/a	n/a	n/a
1479.3996	1	9	n/a	n/a	1	n/a	n/a	n/a	n/a	n/a	n/a	n/a	n/a
1480.4162	1	10	2	700	1	1	0	0	0	0	0.1	0.1	31
1481.1328	1	20	n/a	n/a	1	n/a	n/a	n/a	n/a	n/a	n/a	n/a	n/a
1484.8278	1	80	n/a	n/a	1	n/a	n/a	n/a	n/a	n/a	n/a	n/a	n/a
1484.9278	1	80	n/a	n/a	1	n/a	n/a	n/a	n/a	n/a	n/a	n/a	n/a
1485.3326	1	31	n/a	n/a	1	n/a	n/a	n/a	n/a	n/a	n/a	n/a	n/a
1489.349	1	9	n/a	n/a	1	n/a	n/a	n/a	n/a	n/a	n/a	n/a	n/a
1634.5772	1	9	n/a	n/a	1	n/a	n/a	n/a	n/a	n/a	n/a	n/a	n/a
1635.5938	1	10	1	823	1	0	0	1	0	0	0.9	0.9	1
1636.427	1	20	n/a	n/a	1	n/a	n/a	n/a	n/a	n/a	n/a	n/a	n/a
1640.803	1	80	n/a	n/a	1	n/a	n/a	n/a	n/a	n/a	n/a	n/a	n/a
1640.903	1	80	n/a	n/a	1	n/a	n/a	n/a	n/a	n/a	n/a	n/a	n/a
1641.3102	1	31	n/a	n/a	1	n/a	n/a	n/a	n/a	n/a	n/a	n/a	n/a
1645.3266	1	9	n/a	n/a	1	n/a	n/a	n/a	n/a	n/a	n/a	n/a	n/a
1646.3432	1	10	1	506	1	0	0	1	0	0	0.8	0.8	2
1646.8598	1	20	n/a	n/a	1	n/a	n/a	n/a	n/a	n/a	n/a	n/a	n/a
1651.0038	1	80	n/a	n/a	1	n/a	n/a	n/a	n/a	n/a	n/a	n/a	n/a
1651.1038	1	80	n/a	n/a	1	n/a	n/a	n/a	n/a	n/a	n/a	n/a	n/a
1651.5096	1	31	n/a	n/a	1	n/a	n/a	n/a	n/a	n/a	n/a	n/a	n/a
1655.526	1	9	n/a	n/a	1	n/a	n/a	n/a	n/a	n/a	n/a	n/a	n/a
1656.5426	1	10	2	1217	1	0	0	1	0	0	0.6	0.6	3
1657.7758	1	20	n/a	n/a	1	n/a	n/a	n/a	n/a	n/a	n/a	n/a	n/a
1661.6938	1	80	n/a	n/a	1	n/a	n/a	n/a	n/a	n/a	n/a	n/a	n/a
1661.7938	1	80	n/a	n/a	1	n/a	n/a	n/a	n/a	n/a	n/a	n/a	n/a
1662.2088	1	31	n/a	n/a	1	n/a	n/a	n/a	n/a	n/a	n/a	n/a	n/a
1666.2254	1	9	n/a	n/a	1	n/a	n/a	n/a	n/a	n/a	n/a	n/a	n/a
1667.242	1	10	2	1574	1	0	0	1	0	0	0.5	0.5	4
1668.8252	1	20	n/a	n/a	1	n/a	n/a	n/a	n/a	n/a	n/a	n/a	n/a
1673.0562	1	80	n/a	n/a	1	n/a	n/a	n/a	n/a	n/a	n/a	n/a	n/a
1673.1562	1	80	n/a	n/a	1	n/a	n/a	n/a	n/a	n/a	n/a	n/a	n/a
1673.5582	1	31	n/a	n/a	1	n/a	n/a	n/a	n/a	n/a	n/a	n/a	n/a
1677.5746	1	9	n/a	n/a	1	n/a	n/a	n/a	n/a	n/a	n/a	n/a	n/a
1678.5912	1	10	2	496	1	0	0	1	0	0	0.1	0.1	5
1679.0912	1	20	n/a	n/a	1	n/a	n/a	n/a	n/a	n/a	n/a	n/a	n/a
1681.7412	1	80	n/a	n/a	1	n/a	n/a	n/a	n/a	n/a	n/a	n/a	n/a
1681.8412	1	80	n/a	n/a	1	n/a	n/a	n/a	n/a	n/a	n/a	n/a	n/a
1682.2576	1	31	n/a	n/a	1	n/a	n/a	n/a	n/a	n/a	n/a	n/a	n/a
1686.2742	1	9	n/a	n/a	1	n/a	n/a	n/a	n/a	n/a	n/a	n/a	n/a
1687.2908	1	10	2	501	1	0	0	1	0	0	0.1	0.1	6
1687.8074	1	20	n/a	n/a	1	n/a	n/a	n/a	n/a	n/a	n/a	n/a	n/a
1690.8684	1	80	n/a	n/a	1	n/a	n/a	n/a	n/a	n/a	n/a	n/a	n/a
1690.9684	1	80	n/a	n/a	1	n/a	n/a	n/a	n/a	n/a	n/a	n/a	n/a
1691.3738	1	31	n/a	n/a	1	n/a	n/a	n/a	n/a	n/a	n/a	n/a	n/a
1695.3902	1	9	n/a	n/a	1	n/a	n/a	n/a	n/a	n/a	n/a	n/a	n/a
1696.4068	1	10	2	1049	1	0	0	1	0	0	0.6	0.6	7
1697.4734	1	20	n/a	n/a	1	n/a	n/a	n/a	n/a	n/a	n/a	n/a	n/a
1700.7514	1	80	n/a	n/a	1	n/a	n/a	n/a	n/a	n/a	n/a	n/a	n/a
1700.8514	1	80	n/a	n/a	1	n/a	n/a	n/a	n/a	n/a	n/a	n/a	n/a
1701.2566	1	31	n/a	n/a	1	n/a	n/a	n/a	n/a	n/a	n/a	n/a	n/a
1705.273	1	9	n/a	n/a	1	n/a	n/a	n/a	n/a	n/a	n/a	n/a	n/a
1706.2896	1	10	2	1358	1	0	0	1	0	0	0.5	0.5	8
1707.6562	1	20	n/a	n/a	1	n/a	n/a	n/a	n/a	n/a	n/a	n/a	n/a
1711.3392	1	80	n/a	n/a	1	n/a	n/a	n/a	n/a	n/a	n/a	n/a	n/a
1711.4392	1	80	n/a	n/a	1	n/a	n/a	n/a	n/a	n/a	n/a	n/a	n/a
1711.856	1	30	n/a	n/a	1	n/a	n/a	n/a	n/a	n/a	n/a	n/a	n/a
1715.8724	1	9	n/a	n/a	1	n/a	n/a	n/a	n/a	n/a	n/a	n/a	n/a
1716.889	1	10	1	694	1	0	0	1	0	0	0.8	0.8	9
1717.589	1	20	n/a	n/a	1	n/a	n/a	n/a	n/a	n/a	n/a	n/a	n/a
1720.964	1	80	n/a	n/a	1	n/a	n/a	n/a	n/a	n/a	n/a	n/a	n/a
1721.0638	1	80	n/a	n/a	1	n/a	n/a	n/a	n/a	n/a	n/a	n/a	n/a
1721.472	1	30	n/a	n/a	1	n/a	n/a	n/a	n/a	n/a	n/a	n/a	n/a
1725.4884	1	9	n/a	n/a	1	n/a	n/a	n/a	n/a	n/a	n/a	n/a	n/a
1726.505	1	10	2	533	1	0	0	1	0	0	0.4	0.4	10
1727.055	1	20	n/a	n/a	1	n/a	n/a	n/a	n/a	n/a	n/a	n/a	n/a
1730.924	1	80	n/a	n/a	1	n/a	n/a	n/a	n/a	n/a	n/a	n/a	n/a
1731.024	1	80	n/a	n/a	1	n/a	n/a	n/a	n/a	n/a	n/a	n/a	n/a
1731.438	1	31	n/a	n/a	1	n/a	n/a	n/a	n/a	n/a	n/a	n/a	n/a
1738.4544	1	9	n/a	n/a	1	n/a	n/a	n/a	n/a	n/a	n/a	n/a	n/a
1739.471	1	10	2	1311	1	0	0	1	0.6	0.8349	0.2	0.25235	11
1740.7876	1	20	n/a	n/a	1	n/a	n/a	n/a	n/a	n/a	n/a	n/a	n/a
1744.2266	1	80	n/a	n/a	1	n/a	n/a	n/a	n/a	n/a	n/a	n/a	n/a
1744.3264	1	80	n/a	n/a	1	n/a	n/a	n/a	n/a	n/a	n/a	n/a	n/a
1744.7372	1	31	n/a	n/a	1	n/a	n/a	n/a	n/a	n/a	n/a	n/a	n/a
1748.7538	1	40	n/a	n/a	1	n/a	n/a	n/a	n/a	n/a	n/a	n/a	n/a
1750.7702	1	9	n/a	n/a	1	n/a	n/a	n/a	n/a	n/a	n/a	n/a	n/a
1751.7868	1	10	1	1507	1	0	0	1	0.4	0.94643	0.2	0.29762	12
1753.3034	1	20	n/a	n/a	1	n/a	n/a	n/a	n/a	n/a	n/a	n/a	n/a
1756.7554	1	80	n/a	n/a	1	n/a	n/a	n/a	n/a	n/a	n/a	n/a	n/a
1756.8554	1	80	n/a	n/a	1	n/a	n/a	n/a	n/a	n/a	n/a	n/a	n/a
1757.2698	1	31	n/a	n/a	1	n/a	n/a	n/a	n/a	n/a	n/a	n/a	n/a
1761.2862	1	40	n/a	n/a	1	n/a	n/a	n/a	n/a	n/a	n/a	n/a	n/a
1763.3028	1	9	n/a	n/a	1	n/a	n/a	n/a	n/a	n/a	n/a	n/a	n/a
1764.3194	1	10	2	2366	1	0	0	1	0.5	0.86411	0.2	0.26411	13
1766.7026	1	20	n/a	n/a	1	n/a	n/a	n/a	n/a	n/a	n/a	n/a	n/a
1770.2756	1	80	n/a	n/a	1	n/a	n/a	n/a	n/a	n/a	n/a	n/a	n/a
1770.3756	1	80	n/a	n/a	1	n/a	n/a	n/a	n/a	n/a	n/a	n/a	n/a
1770.7858	1	31	n/a	n/a	1	n/a	n/a	n/a	n/a	n/a	n/a	n/a	n/a
1774.8022	1	40	n/a	n/a	1	n/a	n/a	n/a	n/a	n/a	n/a	n/a	n/a
1776.8186	1	9	n/a	n/a	1	n/a	n/a	n/a	n/a	n/a	n/a	n/a	n/a
1777.8352	1	10	1	1954	1	0	0	1	0.7	0.89658	0.3	0.75869	14
1779.8018	1	20	n/a	n/a	1	n/a	n/a	n/a	n/a	n/a	n/a	n/a	n/a
1783.5048	1	80	n/a	n/a	1	n/a	n/a	n/a	n/a	n/a	n/a	n/a	n/a
1783.6048	1	80	n/a	n/a	1	n/a	n/a	n/a	n/a	n/a	n/a	n/a	n/a
1784.0182	1	30	n/a	n/a	1	n/a	n/a	n/a	n/a	n/a	n/a	n/a	n/a
1788.0346	1	40	n/a	n/a	1	n/a	n/a	n/a	n/a	n/a	n/a	n/a	n/a
1790.0512	1	9	n/a	n/a	1	n/a	n/a	n/a	n/a	n/a	n/a	n/a	n/a
1791.0678	1	10	1	3441	1	0	0	1	0.8	0.056905	0.9	0.72762	15
1794.5176	1	20	n/a	n/a	1	n/a	n/a	n/a	n/a	n/a	n/a	n/a	n/a
1798.0446	1	80	n/a	n/a	1	n/a	n/a	n/a	n/a	n/a	n/a	n/a	n/a
1798.1446	1	80	n/a	n/a	1	n/a	n/a	n/a	n/a	n/a	n/a	n/a	n/a
1798.5508	1	31	n/a	n/a	1	n/a	n/a	n/a	n/a	n/a	n/a	n/a	n/a
1802.5672	1	40	n/a	n/a	1	n/a	n/a	n/a	n/a	n/a	n/a	n/a	n/a
1804.5836	1	9	n/a	n/a	1	n/a	n/a	n/a	n/a	n/a	n/a	n/a	n/a
1805.6004	1	10	1	2908	1	0	0	1	0.8	0.59485	0.4	0.3794	16
1808.5168	1	20	n/a	n/a	1	n/a	n/a	n/a	n/a	n/a	n/a	n/a	n/a
1811.1328	1	80	n/a	n/a	1	n/a	n/a	n/a	n/a	n/a	n/a	n/a	n/a
1811.2328	1	80	n/a	n/a	1	n/a	n/a	n/a	n/a	n/a	n/a	n/a	n/a
1811.65	1	30	n/a	n/a	1	n/a	n/a	n/a	n/a	n/a	n/a	n/a	n/a
1815.6664	1	40	n/a	n/a	1	n/a	n/a	n/a	n/a	n/a	n/a	n/a	n/a
1817.683	1	9	n/a	n/a	1	n/a	n/a	n/a	n/a	n/a	n/a	n/a	n/a
1818.6996	1	10	1	3633	1	0	0	1	0.5	0.30224	0.8	0.90224	17
1822.3492	1	20	n/a	n/a	1	n/a	n/a	n/a	n/a	n/a	n/a	n/a	n/a
1825.1442	1	80	n/a	n/a	1	n/a	n/a	n/a	n/a	n/a	n/a	n/a	n/a
1825.2442	1	80	n/a	n/a	1	n/a	n/a	n/a	n/a	n/a	n/a	n/a	n/a
1825.649	1	30	n/a	n/a	1	n/a	n/a	n/a	n/a	n/a	n/a	n/a	n/a
1829.6656	1	40	n/a	n/a	1	n/a	n/a	n/a	n/a	n/a	n/a	n/a	n/a
1831.682	1	9	n/a	n/a	1	n/a	n/a	n/a	n/a	n/a	n/a	n/a	n/a
1832.6986	1	10	2	1938	1	0	0	1	0.6	0.78307	0.2	0.1746	18
1834.6486	1	20	n/a	n/a	1	n/a	n/a	n/a	n/a	n/a	n/a	n/a	n/a
1837.7666	1	80	n/a	n/a	1	n/a	n/a	n/a	n/a	n/a	n/a	n/a	n/a
1837.8666	1	80	n/a	n/a	1	n/a	n/a	n/a	n/a	n/a	n/a	n/a	n/a
1838.2816	1	31	n/a	n/a	1	n/a	n/a	n/a	n/a	n/a	n/a	n/a	n/a
1842.2982	1	40	n/a	n/a	1	n/a	n/a	n/a	n/a	n/a	n/a	n/a	n/a
1844.3146	1	9	n/a	n/a	1	n/a	n/a	n/a	n/a	n/a	n/a	n/a	n/a
1845.3312	1	10	1	2392	1	0	0	1	0.8	0.99743	0.1	0.48972	19
1847.7312	1	20	n/a	n/a	1	n/a	n/a	n/a	n/a	n/a	n/a	n/a	n/a
1850.8772	1	80	n/a	n/a	1	n/a	n/a	n/a	n/a	n/a	n/a	n/a	n/a
1850.9772	1	80	n/a	n/a	1	n/a	n/a	n/a	n/a	n/a	n/a	n/a	n/a
1851.3808	1	30	n/a	n/a	1	n/a	n/a	n/a	n/a	n/a	n/a	n/a	n/a
1855.3974	1	40	n/a	n/a	1	n/a	n/a	n/a	n/a	n/a	n/a	n/a	n/a
1857.4138	1	9	n/a	n/a	1	n/a	n/a	n/a	n/a	n/a	n/a	n/a	n/a
1858.4304	1	10	1	5261	1	0	0	1	0.5	0.73748	0.6	0.93748	20
1863.6968	1	20	n/a	n/a	1	n/a	n/a	n/a	n/a	n/a	n/a	n/a	n/a
1866.2638	1	80	n/a	n/a	1	n/a	n/a	n/a	n/a	n/a	n/a	n/a	n/a
1866.3638	1	80	n/a	n/a	1	n/a	n/a	n/a	n/a	n/a	n/a	n/a	n/a
1866.78	1	31	n/a	n/a	1	n/a	n/a	n/a	n/a	n/a	n/a	n/a	n/a
1870.7964	1	40	n/a	n/a	1	n/a	n/a	n/a	n/a	n/a	n/a	n/a	n/a
1875.8128	1	9	n/a	n/a	1	n/a	n/a	n/a	n/a	n/a	n/a	n/a	n/a
1876.8294	1	10	2	766	1	0	0	1	0	0	0.3	0.3	21
1877.6126	1	20	n/a	n/a	1	n/a	n/a	n/a	n/a	n/a	n/a	n/a	n/a
1881.9436	1	80	n/a	n/a	1	n/a	n/a	n/a	n/a	n/a	n/a	n/a	n/a
1882.0436	1	80	n/a	n/a	1	n/a	n/a	n/a	n/a	n/a	n/a	n/a	n/a
1882.4458	1	31	n/a	n/a	1	n/a	n/a	n/a	n/a	n/a	n/a	n/a	n/a
1886.4622	1	9	n/a	n/a	1	n/a	n/a	n/a	n/a	n/a	n/a	n/a	n/a
1887.4788	1	10	2	756	1	0	0	1	0	0	0.6	0.6	22
1888.2454	1	20	n/a	n/a	1	n/a	n/a	n/a	n/a	n/a	n/a	n/a	n/a
1891.4654	1	80	n/a	n/a	1	n/a	n/a	n/a	n/a	n/a	n/a	n/a	n/a
1891.5654	1	80	n/a	n/a	1	n/a	n/a	n/a	n/a	n/a	n/a	n/a	n/a
1891.9784	1	31	n/a	n/a	1	n/a	n/a	n/a	n/a	n/a	n/a	n/a	n/a
1895.9948	1	9	n/a	n/a	1	n/a	n/a	n/a	n/a	n/a	n/a	n/a	n/a
1897.0116	1	10	1	1239	1	0	0	1	0	0	0.8	0.8	23
1898.2614	1	20	n/a	n/a	1	n/a	n/a	n/a	n/a	n/a	n/a	n/a	n/a
1901.0414	1	80	n/a	n/a	1	n/a	n/a	n/a	n/a	n/a	n/a	n/a	n/a
1901.1414	1	80	n/a	n/a	1	n/a	n/a	n/a	n/a	n/a	n/a	n/a	n/a
1901.5446	1	31	n/a	n/a	1	n/a	n/a	n/a	n/a	n/a	n/a	n/a	n/a
1905.561	1	9	n/a	n/a	1	n/a	n/a	n/a	n/a	n/a	n/a	n/a	n/a
1906.5776	1	10	1	1001	1	0	0	1	0	0	0.5	0.5	24
1907.5942	1	20	n/a	n/a	1	n/a	n/a	n/a	n/a	n/a	n/a	n/a	n/a
1911.2092	1	80	n/a	n/a	1	n/a	n/a	n/a	n/a	n/a	n/a	n/a	n/a
1911.3092	1	80	n/a	n/a	1	n/a	n/a	n/a	n/a	n/a	n/a	n/a	n/a
1911.7272	1	30	n/a	n/a	1	n/a	n/a	n/a	n/a	n/a	n/a	n/a	n/a
1915.727	1	9	n/a	n/a	1	n/a	n/a	n/a	n/a	n/a	n/a	n/a	n/a
1916.7436	1	10	1	1154	1	0	0	1	0	0	0.6	0.6	25
1917.9102	1	20	n/a	n/a	1	n/a	n/a	n/a	n/a	n/a	n/a	n/a	n/a
1922.3332	1	80	n/a	n/a	1	n/a	n/a	n/a	n/a	n/a	n/a	n/a	n/a
1922.4332	1	80	n/a	n/a	1	n/a	n/a	n/a	n/a	n/a	n/a	n/a	n/a
1922.8432	1	30	n/a	n/a	1	n/a	n/a	n/a	n/a	n/a	n/a	n/a	n/a
1926.8598	1	9	n/a	n/a	1	n/a	n/a	n/a	n/a	n/a	n/a	n/a	n/a
1927.8764	1	10	2	997	1	0	0	1	0	0	0.2	0.2	26
1928.8762	1	20	n/a	n/a	1	n/a	n/a	n/a	n/a	n/a	n/a	n/a	n/a
1933.2422	1	80	n/a	n/a	1	n/a	n/a	n/a	n/a	n/a	n/a	n/a	n/a
1933.3422	1	80	n/a	n/a	1	n/a	n/a	n/a	n/a	n/a	n/a	n/a	n/a
1933.7594	1	31	n/a	n/a	1	n/a	n/a	n/a	n/a	n/a	n/a	n/a	n/a
1937.7758	1	9	n/a	n/a	1	n/a	n/a	n/a	n/a	n/a	n/a	n/a	n/a
1938.7924	1	10	2	657	1	0	0	1	0	0	0.6	0.6	27
1939.459	1	20	n/a	n/a	1	n/a	n/a	n/a	n/a	n/a	n/a	n/a	n/a
1942.817	1	80	n/a	n/a	1	n/a	n/a	n/a	n/a	n/a	n/a	n/a	n/a
1942.917	1	80	n/a	n/a	1	n/a	n/a	n/a	n/a	n/a	n/a	n/a	n/a
1943.3254	1	31	n/a	n/a	1	n/a	n/a	n/a	n/a	n/a	n/a	n/a	n/a
1947.3418	1	9	n/a	n/a	1	n/a	n/a	n/a	n/a	n/a	n/a	n/a	n/a
1948.3584	1	10	1	707	1	0	0	1	0	0	0.8	0.8	28
1949.075	1	20	n/a	n/a	1	n/a	n/a	n/a	n/a	n/a	n/a	n/a	n/a
1952.124	1	80	n/a	n/a	1	n/a	n/a	n/a	n/a	n/a	n/a	n/a	n/a
1952.224	1	80	n/a	n/a	1	n/a	n/a	n/a	n/a	n/a	n/a	n/a	n/a
1952.6416	1	31	n/a	n/a	1	n/a	n/a	n/a	n/a	n/a	n/a	n/a	n/a
1956.658	1	9	n/a	n/a	1	n/a	n/a	n/a	n/a	n/a	n/a	n/a	n/a
1957.6746	1	10	1	1023	1	0	0	1	0	0	0.4	0.4	29
1958.7078	1	20	n/a	n/a	1	n/a	n/a	n/a	n/a	n/a	n/a	n/a	n/a
1962.6968	1	80	n/a	n/a	1	n/a	n/a	n/a	n/a	n/a	n/a	n/a	n/a
1962.7968	1	80	n/a	n/a	1	n/a	n/a	n/a	n/a	n/a	n/a	n/a	n/a
1963.2076	1	30	n/a	n/a	1	n/a	n/a	n/a	n/a	n/a	n/a	n/a	n/a
1967.224	1	9	n/a	n/a	1	n/a	n/a	n/a	n/a	n/a	n/a	n/a	n/a
1968.2406	1	10	2	2601	1	0	0	1	0	0	0.5	0.5	30
1970.857	1	20	n/a	n/a	1	n/a	n/a	n/a	n/a	n/a	n/a	n/a	n/a
1973.661	1	80	n/a	n/a	1	n/a	n/a	n/a	n/a	n/a	n/a	n/a	n/a
1973.761	1	80	n/a	n/a	1	n/a	n/a	n/a	n/a	n/a	n/a	n/a	n/a
1974.1736	1	30	n/a	n/a	1	n/a	n/a	n/a	n/a	n/a	n/a	n/a	n/a
1981.1898	1	9	n/a	n/a	1	n/a	n/a	n/a	n/a	n/a	n/a	n/a	n/a
1982.2064	1	10	2	1130	1	0	0	1	0.5	0.51787	0.3	0.11787	31
1983.3396	1	20	n/a	n/a	1	n/a	n/a	n/a	n/a	n/a	n/a	n/a	n/a
1986.5926	1	80	n/a	n/a	1	n/a	n/a	n/a	n/a	n/a	n/a	n/a	n/a
1986.6926	1	80	n/a	n/a	1	n/a	n/a	n/a	n/a	n/a	n/a	n/a	n/a
1987.1062	1	30	n/a	n/a	1	n/a	n/a	n/a	n/a	n/a	n/a	n/a	n/a
1991.1226	1	40	n/a	n/a	1	n/a	n/a	n/a	n/a	n/a	n/a	n/a	n/a
1993.139	1	9	n/a	n/a	1	n/a	n/a	n/a	n/a	n/a	n/a	n/a	n/a
1994.1556	1	10	1	924	1	0	0	1	0.5	0.11986	0.6	0.31986	32
1995.089	1	20	n/a	n/a	1	n/a	n/a	n/a	n/a	n/a	n/a	n/a	n/a
1998.745	1	80	n/a	n/a	1	n/a	n/a	n/a	n/a	n/a	n/a	n/a	n/a
1998.845	1	80	n/a	n/a	1	n/a	n/a	n/a	n/a	n/a	n/a	n/a	n/a
1999.2554	1	31	n/a	n/a	1	n/a	n/a	n/a	n/a	n/a	n/a	n/a	n/a
2003.2718	1	40	n/a	n/a	1	n/a	n/a	n/a	n/a	n/a	n/a	n/a	n/a
2005.2884	1	9	n/a	n/a	1	n/a	n/a	n/a	n/a	n/a	n/a	n/a	n/a
2006.305	1	10	1	1575	1	0	0	1	0.8	0.94436	0.1	0.27743	33
2007.8882	1	20	n/a	n/a	1	n/a	n/a	n/a	n/a	n/a	n/a	n/a	n/a
2010.5242	1	80	n/a	n/a	1	n/a	n/a	n/a	n/a	n/a	n/a	n/a	n/a
2010.6242	1	80	n/a	n/a	1	n/a	n/a	n/a	n/a	n/a	n/a	n/a	n/a
2011.038	1	30	n/a	n/a	1	n/a	n/a	n/a	n/a	n/a	n/a	n/a	n/a
2015.0544	1	40	n/a	n/a	1	n/a	n/a	n/a	n/a	n/a	n/a	n/a	n/a
2017.071	1	9	n/a	n/a	1	n/a	n/a	n/a	n/a	n/a	n/a	n/a	n/a
2018.0876	1	10	2	2000	1	0	0	1	0.7	0.078923	0.9	0.85082	34
2020.1042	1	20	n/a	n/a	1	n/a	n/a	n/a	n/a	n/a	n/a	n/a	n/a
2024.2302	1	80	n/a	n/a	1	n/a	n/a	n/a	n/a	n/a	n/a	n/a	n/a
2024.3302	1	80	n/a	n/a	1	n/a	n/a	n/a	n/a	n/a	n/a	n/a	n/a
2024.7372	1	30	n/a	n/a	1	n/a	n/a	n/a	n/a	n/a	n/a	n/a	n/a
2028.7536	1	40	n/a	n/a	1	n/a	n/a	n/a	n/a	n/a	n/a	n/a	n/a
2030.7702	1	9	n/a	n/a	1	n/a	n/a	n/a	n/a	n/a	n/a	n/a	n/a
2031.7868	1	10	2	2077	1	0	0	1	0.6	0.26339	0.1	0.03125	35
2033.87	1	20	n/a	n/a	1	n/a	n/a	n/a	n/a	n/a	n/a	n/a	n/a
2036.79	1	80	n/a	n/a	1	n/a	n/a	n/a	n/a	n/a	n/a	n/a	n/a
2036.89	1	80	n/a	n/a	1	n/a	n/a	n/a	n/a	n/a	n/a	n/a	n/a
2037.3032	1	31	n/a	n/a	1	n/a	n/a	n/a	n/a	n/a	n/a	n/a	n/a
2041.3196	1	40	n/a	n/a	1	n/a	n/a	n/a	n/a	n/a	n/a	n/a	n/a
2043.336	1	9	n/a	n/a	1	n/a	n/a	n/a	n/a	n/a	n/a	n/a	n/a
2044.3526	1	10	1	1718	1	0	0	1	0.4	0.78524	0.5	0.69016	36
2046.086	1	20	n/a	n/a	1	n/a	n/a	n/a	n/a	n/a	n/a	n/a	n/a
2050.547	1	80	n/a	n/a	1	n/a	n/a	n/a	n/a	n/a	n/a	n/a	n/a
2050.6468	1	80	n/a	n/a	1	n/a	n/a	n/a	n/a	n/a	n/a	n/a	n/a
2051.0522	1	31	n/a	n/a	1	n/a	n/a	n/a	n/a	n/a	n/a	n/a	n/a
2055.0688	1	40	n/a	n/a	1	n/a	n/a	n/a	n/a	n/a	n/a	n/a	n/a
2057.0852	1	9	n/a	n/a	1	n/a	n/a	n/a	n/a	n/a	n/a	n/a	n/a
2058.1018	1	10	1	561	1	0	0	1	0.4	0.78902	0.5	0.69268	37
2058.6686	1	20	n/a	n/a	1	n/a	n/a	n/a	n/a	n/a	n/a	n/a	n/a
2061.3426	1	80	n/a	n/a	1	n/a	n/a	n/a	n/a	n/a	n/a	n/a	n/a
2061.4426	1	80	n/a	n/a	1	n/a	n/a	n/a	n/a	n/a	n/a	n/a	n/a
2061.8516	1	30	n/a	n/a	1	n/a	n/a	n/a	n/a	n/a	n/a	n/a	n/a
2065.868	1	40	n/a	n/a	1	n/a	n/a	n/a	n/a	n/a	n/a	n/a	n/a
2067.8846	1	9	n/a	n/a	1	n/a	n/a	n/a	n/a	n/a	n/a	n/a	n/a
2068.9012	1	10	1	1633	1	0	0	1	0.4	0.16258	0.9	0.94172	38
2070.5512	1	20	n/a	n/a	1	n/a	n/a	n/a	n/a	n/a	n/a	n/a	n/a
2074.7172	1	80	n/a	n/a	1	n/a	n/a	n/a	n/a	n/a	n/a	n/a	n/a
2074.8172	1	80	n/a	n/a	1	n/a	n/a	n/a	n/a	n/a	n/a	n/a	n/a
2075.2342	1	30	n/a	n/a	1	n/a	n/a	n/a	n/a	n/a	n/a	n/a	n/a
2079.2506	1	40	n/a	n/a	1	n/a	n/a	n/a	n/a	n/a	n/a	n/a	n/a
2081.2672	1	9	n/a	n/a	1	n/a	n/a	n/a	n/a	n/a	n/a	n/a	n/a
2082.2838	1	10	2	587	1	0	0	1	0.5	0.11981	0.8	0.71981	39
2082.8838	1	20	n/a	n/a	1	n/a	n/a	n/a	n/a	n/a	n/a	n/a	n/a
2086.5858	1	80	n/a	n/a	1	n/a	n/a	n/a	n/a	n/a	n/a	n/a	n/a
2086.6858	1	80	n/a	n/a	1	n/a	n/a	n/a	n/a	n/a	n/a	n/a	n/a
2087.1002	1	30	n/a	n/a	1	n/a	n/a	n/a	n/a	n/a	n/a	n/a	n/a
2091.1166	1	40	n/a	n/a	1	n/a	n/a	n/a	n/a	n/a	n/a	n/a	n/a
2093.1332	1	9	n/a	n/a	1	n/a	n/a	n/a	n/a	n/a	n/a	n/a	n/a
2094.1498	1	10	2	2273	1	0	0	1	0.7	0.11376	0.6	0.041667	40
2096.433	1	20	n/a	n/a	1	n/a	n/a	n/a	n/a	n/a	n/a	n/a	n/a
2100.312	1	80	n/a	n/a	1	n/a	n/a	n/a	n/a	n/a	n/a	n/a	n/a
2100.412	1	80	n/a	n/a	1	n/a	n/a	n/a	n/a	n/a	n/a	n/a	n/a
2100.816	1	31	n/a	n/a	1	n/a	n/a	n/a	n/a	n/a	n/a	n/a	n/a
2104.8324	1	40	n/a	n/a	1	n/a	n/a	n/a	n/a	n/a	n/a	n/a	n/a
2109.8488	1	9	n/a	n/a	1	n/a	n/a	n/a	n/a	n/a	n/a	n/a	n/a
2110.8654	1	10	1	628	1	0	0	1	0	0	0.8	0.8	41
2111.4986	1	20	n/a	n/a	1	n/a	n/a	n/a	n/a	n/a	n/a	n/a	n/a
2115.7186	1	80	n/a	n/a	1	n/a	n/a	n/a	n/a	n/a	n/a	n/a	n/a
2115.8186	1	80	n/a	n/a	1	n/a	n/a	n/a	n/a	n/a	n/a	n/a	n/a
2116.2318	1	31	n/a	n/a	1	n/a	n/a	n/a	n/a	n/a	n/a	n/a	n/a
2120.2482	1	9	n/a	n/a	1	n/a	n/a	n/a	n/a	n/a	n/a	n/a	n/a
2121.2648	1	10	1	980	1	0	0	1	0	0	0.8	0.8	42
2122.248	1	20	n/a	n/a	1	n/a	n/a	n/a	n/a	n/a	n/a	n/a	n/a
2125.264	1	80	n/a	n/a	1	n/a	n/a	n/a	n/a	n/a	n/a	n/a	n/a
2125.364	1	80	n/a	n/a	1	n/a	n/a	n/a	n/a	n/a	n/a	n/a	n/a
2125.7812	1	31	n/a	n/a	1	n/a	n/a	n/a	n/a	n/a	n/a	n/a	n/a
2129.7976	1	9	n/a	n/a	1	n/a	n/a	n/a	n/a	n/a	n/a	n/a	n/a
2130.8142	1	10	2	3239	1	0	0	1	0	0	0.2	0.2	43
2134.064	1	20	n/a	n/a	1	n/a	n/a	n/a	n/a	n/a	n/a	n/a	n/a
2137.379	1	80	n/a	n/a	1	n/a	n/a	n/a	n/a	n/a	n/a	n/a	n/a
2137.479	1	80	n/a	n/a	1	n/a	n/a	n/a	n/a	n/a	n/a	n/a	n/a
2137.8804	1	31	n/a	n/a	1	n/a	n/a	n/a	n/a	n/a	n/a	n/a	n/a
2141.8968	1	9	n/a	n/a	1	n/a	n/a	n/a	n/a	n/a	n/a	n/a	n/a
2142.9134	1	10	2	1044	1	0	0	1	0	0	0.1	0.1	44
2143.9634	1	20	n/a	n/a	1	n/a	n/a	n/a	n/a	n/a	n/a	n/a	n/a
2147.0314	1	80	n/a	n/a	1	n/a	n/a	n/a	n/a	n/a	n/a	n/a	n/a
2147.1314	1	80	n/a	n/a	1	n/a	n/a	n/a	n/a	n/a	n/a	n/a	n/a
2147.5466	1	31	n/a	n/a	1	n/a	n/a	n/a	n/a	n/a	n/a	n/a	n/a
2151.563	1	9	n/a	n/a	1	n/a	n/a	n/a	n/a	n/a	n/a	n/a	n/a
2152.5796	1	10	1	833	1	0	0	1	0	0	0.5	0.5	45
2153.4296	1	20	n/a	n/a	1	n/a	n/a	n/a	n/a	n/a	n/a	n/a	n/a
2157.2316	1	80	n/a	n/a	1	n/a	n/a	n/a	n/a	n/a	n/a	n/a	n/a
2157.3314	1	80	n/a	n/a	1	n/a	n/a	n/a	n/a	n/a	n/a	n/a	n/a
2157.746	1	31	n/a	n/a	1	n/a	n/a	n/a	n/a	n/a	n/a	n/a	n/a
2161.7624	1	9	n/a	n/a	1	n/a	n/a	n/a	n/a	n/a	n/a	n/a	n/a
2162.779	1	10	2	1033	1	0	0	1	0	0	0.7	0.7	46
2163.8288	1	20	n/a	n/a	1	n/a	n/a	n/a	n/a	n/a	n/a	n/a	n/a
2168.1108	1	80	n/a	n/a	1	n/a	n/a	n/a	n/a	n/a	n/a	n/a	n/a
2168.2108	1	80	n/a	n/a	1	n/a	n/a	n/a	n/a	n/a	n/a	n/a	n/a
2168.6286	1	30	n/a	n/a	1	n/a	n/a	n/a	n/a	n/a	n/a	n/a	n/a
2172.645	1	9	n/a	n/a	1	n/a	n/a	n/a	n/a	n/a	n/a	n/a	n/a
2173.6616	1	10	2	2214	1	0	0	1	0	0	0.5	0.5	47
2175.8948	1	20	n/a	n/a	1	n/a	n/a	n/a	n/a	n/a	n/a	n/a	n/a
2180.0052	1	80	n/a	n/a	1	n/a	n/a	n/a	n/a	n/a	n/a	n/a	n/a
2180.1052	1	80	n/a	n/a	1	n/a	n/a	n/a	n/a	n/a	n/a	n/a	n/a
2180.5112	1	30	n/a	n/a	1	n/a	n/a	n/a	n/a	n/a	n/a	n/a	n/a
2184.5276	1	9	n/a	n/a	1	n/a	n/a	n/a	n/a	n/a	n/a	n/a	n/a
2185.5442	1	10	1	940	1	0	0	1	0	0	0.4	0.4	48
2186.4942	1	20	n/a	n/a	1	n/a	n/a	n/a	n/a	n/a	n/a	n/a	n/a
2190.9242	1	80	n/a	n/a	1	n/a	n/a	n/a	n/a	n/a	n/a	n/a	n/a
2191.0242	1	80	n/a	n/a	1	n/a	n/a	n/a	n/a	n/a	n/a	n/a	n/a
2191.4272	1	30	n/a	n/a	1	n/a	n/a	n/a	n/a	n/a	n/a	n/a	n/a
2195.4436	1	9	n/a	n/a	1	n/a	n/a	n/a	n/a	n/a	n/a	n/a	n/a
2196.4602	1	10	1	4199	1	0	0	1	0	0	0.5	0.5	49
2200.6766	1	20	n/a	n/a	1	n/a	n/a	n/a	n/a	n/a	n/a	n/a	n/a
2205.0676	1	80	n/a	n/a	1	n/a	n/a	n/a	n/a	n/a	n/a	n/a	n/a
2205.1676	1	80	n/a	n/a	1	n/a	n/a	n/a	n/a	n/a	n/a	n/a	n/a
2205.5764	1	31	n/a	n/a	1	n/a	n/a	n/a	n/a	n/a	n/a	n/a	n/a
2209.5928	1	9	n/a	n/a	1	n/a	n/a	n/a	n/a	n/a	n/a	n/a	n/a
2210.6094	1	10	2	1730	1	0	0	1	0	0	0.1	0.1	50
2212.3426	1	20	n/a	n/a	1	n/a	n/a	n/a	n/a	n/a	n/a	n/a	n/a
2215.3926	1	80	n/a	n/a	1	n/a	n/a	n/a	n/a	n/a	n/a	n/a	n/a
2215.4926	1	80	n/a	n/a	1	n/a	n/a	n/a	n/a	n/a	n/a	n/a	n/a
2215.9092	1	30	n/a	n/a	1	n/a	n/a	n/a	n/a	n/a	n/a	n/a	n/a
2466.5964	1	9	n/a	n/a	1	n/a	n/a	n/a	n/a	n/a	n/a	n/a	n/a
2467.613	1	10	1	1895	1	0	0	1	0.5	0.36537	0.6	0.56537	51
2469.5128	1	20	n/a	n/a	1	n/a	n/a	n/a	n/a	n/a	n/a	n/a	n/a
2473.3168	1	80	n/a	n/a	1	n/a	n/a	n/a	n/a	n/a	n/a	n/a	n/a
2473.4168	1	80	n/a	n/a	1	n/a	n/a	n/a	n/a	n/a	n/a	n/a	n/a
2473.8292	1	31	n/a	n/a	1	n/a	n/a	n/a	n/a	n/a	n/a	n/a	n/a
2477.8456	1	40	n/a	n/a	1	n/a	n/a	n/a	n/a	n/a	n/a	n/a	n/a
2479.8622	1	9	n/a	n/a	1	n/a	n/a	n/a	n/a	n/a	n/a	n/a	n/a
2480.8792	1	10	1	757	1	0	0	1	0.5	0.51456	0.5	0.51456	52
2481.6454	1	20	n/a	n/a	1	n/a	n/a	n/a	n/a	n/a	n/a	n/a	n/a
2484.3114	1	80	n/a	n/a	1	n/a	n/a	n/a	n/a	n/a	n/a	n/a	n/a
2484.4114	1	80	n/a	n/a	1	n/a	n/a	n/a	n/a	n/a	n/a	n/a	n/a
2484.8286	1	31	n/a	n/a	1	n/a	n/a	n/a	n/a	n/a	n/a	n/a	n/a
2488.845	1	40	n/a	n/a	1	n/a	n/a	n/a	n/a	n/a	n/a	n/a	n/a
2490.8616	1	9	n/a	n/a	1	n/a	n/a	n/a	n/a	n/a	n/a	n/a	n/a
2491.8782	1	10	2	653	1	0	0	1	0.6	0.94191	0.2	0.41286	53
2492.5448	1	20	n/a	n/a	1	n/a	n/a	n/a	n/a	n/a	n/a	n/a	n/a
2496.9868	1	80	n/a	n/a	1	n/a	n/a	n/a	n/a	n/a	n/a	n/a	n/a
2497.0868	1	80	n/a	n/a	1	n/a	n/a	n/a	n/a	n/a	n/a	n/a	n/a
2497.4946	1	31	n/a	n/a	1	n/a	n/a	n/a	n/a	n/a	n/a	n/a	n/a
2501.511	1	40	n/a	n/a	1	n/a	n/a	n/a	n/a	n/a	n/a	n/a	n/a
2503.5274	1	9	n/a	n/a	1	n/a	n/a	n/a	n/a	n/a	n/a	n/a	n/a
2504.544	1	10	1	2386	1	0	0	1	0.4	0.6313	0.4	0.42087	54
2506.944	1	20	n/a	n/a	1	n/a	n/a	n/a	n/a	n/a	n/a	n/a	n/a
2511.195	1	80	n/a	n/a	1	n/a	n/a	n/a	n/a	n/a	n/a	n/a	n/a
2511.295	1	80	n/a	n/a	1	n/a	n/a	n/a	n/a	n/a	n/a	n/a	n/a
2511.7104	1	31	n/a	n/a	1	n/a	n/a	n/a	n/a	n/a	n/a	n/a	n/a
2515.7268	1	40	n/a	n/a	1	n/a	n/a	n/a	n/a	n/a	n/a	n/a	n/a
2517.7432	1	9	n/a	n/a	1	n/a	n/a	n/a	n/a	n/a	n/a	n/a	n/a
2518.76	1	10	1	1755	1	0	0	1	0.5	0.64555	0.5	0.64555	55
2520.5264	1	20	n/a	n/a	1	n/a	n/a	n/a	n/a	n/a	n/a	n/a	n/a
2524.5404	1	80	n/a	n/a	1	n/a	n/a	n/a	n/a	n/a	n/a	n/a	n/a
2524.6404	1	80	n/a	n/a	1	n/a	n/a	n/a	n/a	n/a	n/a	n/a	n/a
2525.0428	1	30	n/a	n/a	1	n/a	n/a	n/a	n/a	n/a	n/a	n/a	n/a
2529.0592	1	40	n/a	n/a	1	n/a	n/a	n/a	n/a	n/a	n/a	n/a	n/a
2531.0758	1	9	n/a	n/a	1	n/a	n/a	n/a	n/a	n/a	n/a	n/a	n/a
2532.0924	1	10	2	2854	1	0	0	1	0.6	0.93219	0.2	0.39829	56
2534.959	1	20	n/a	n/a	1	n/a	n/a	n/a	n/a	n/a	n/a	n/a	n/a
2538.096	1	80	n/a	n/a	1	n/a	n/a	n/a	n/a	n/a	n/a	n/a	n/a
2538.196	1	80	n/a	n/a	1	n/a	n/a	n/a	n/a	n/a	n/a	n/a	n/a
2538.6088	1	31	n/a	n/a	1	n/a	n/a	n/a	n/a	n/a	n/a	n/a	n/a
2542.6252	1	40	n/a	n/a	1	n/a	n/a	n/a	n/a	n/a	n/a	n/a	n/a
2544.6416	1	9	n/a	n/a	1	n/a	n/a	n/a	n/a	n/a	n/a	n/a	n/a
2545.6584	1	10	2	1128	1	0	0	1	0.4	0.93088	0.1	0.12058	57
2546.7916	1	20	n/a	n/a	1	n/a	n/a	n/a	n/a	n/a	n/a	n/a	n/a
2549.8636	1	80	n/a	n/a	1	n/a	n/a	n/a	n/a	n/a	n/a	n/a	n/a
2549.9636	1	80	n/a	n/a	1	n/a	n/a	n/a	n/a	n/a	n/a	n/a	n/a
2550.3746	1	31	n/a	n/a	1	n/a	n/a	n/a	n/a	n/a	n/a	n/a	n/a
2554.3912	1	40	n/a	n/a	1	n/a	n/a	n/a	n/a	n/a	n/a	n/a	n/a
2556.4076	1	9	n/a	n/a	1	n/a	n/a	n/a	n/a	n/a	n/a	n/a	n/a
2557.4242	1	10	1	2129	1	0	0	1	0.6	0.55431	0.3	0.081461	58
2559.5574	1	20	n/a	n/a	1	n/a	n/a	n/a	n/a	n/a	n/a	n/a	n/a
2563.6034	1	80	n/a	n/a	1	n/a	n/a	n/a	n/a	n/a	n/a	n/a	n/a
2563.7034	1	80	n/a	n/a	1	n/a	n/a	n/a	n/a	n/a	n/a	n/a	n/a
2564.1072	1	31	n/a	n/a	1	n/a	n/a	n/a	n/a	n/a	n/a	n/a	n/a
2568.1236	1	40	n/a	n/a	1	n/a	n/a	n/a	n/a	n/a	n/a	n/a	n/a
2570.1402	1	9	n/a	n/a	1	n/a	n/a	n/a	n/a	n/a	n/a	n/a	n/a
2571.1568	1	10	1	1948	1	0	0	1	0.5	0.15893	0.9	0.95893	59
2573.1234	1	20	n/a	n/a	1	n/a	n/a	n/a	n/a	n/a	n/a	n/a	n/a
2576.9424	1	80	n/a	n/a	1	n/a	n/a	n/a	n/a	n/a	n/a	n/a	n/a
2577.0424	1	80	n/a	n/a	1	n/a	n/a	n/a	n/a	n/a	n/a	n/a	n/a
2577.4564	1	31	n/a	n/a	1	n/a	n/a	n/a	n/a	n/a	n/a	n/a	n/a
2581.4728	1	40	n/a	n/a	1	n/a	n/a	n/a	n/a	n/a	n/a	n/a	n/a
2583.4894	1	9	n/a	n/a	1	n/a	n/a	n/a	n/a	n/a	n/a	n/a	n/a
2584.506	1	10	2	4199	1	0	0	1	0.6	0.26258	0.8	0.89387	60
2588.7224	1	20	n/a	n/a	1	n/a	n/a	n/a	n/a	n/a	n/a	n/a	n/a
2592.6574	1	80	n/a	n/a	1	n/a	n/a	n/a	n/a	n/a	n/a	n/a	n/a
2592.7574	1	80	n/a	n/a	1	n/a	n/a	n/a	n/a	n/a	n/a	n/a	n/a
2593.1722	1	30	n/a	n/a	1	n/a	n/a	n/a	n/a	n/a	n/a	n/a	n/a
2597.1886	1	40	n/a	n/a	1	n/a	n/a	n/a	n/a	n/a	n/a	n/a	n/a
2602.205	1	9	n/a	n/a	1	n/a	n/a	n/a	n/a	n/a	n/a	n/a	n/a
2603.2216	1	10	2	939	1	0	0	1	0	0	0.1	0.1	61
2604.1714	1	20	n/a	n/a	1	n/a	n/a	n/a	n/a	n/a	n/a	n/a	n/a
2608.6084	1	80	n/a	n/a	1	n/a	n/a	n/a	n/a	n/a	n/a	n/a	n/a
2608.7084	1	80	n/a	n/a	1	n/a	n/a	n/a	n/a	n/a	n/a	n/a	n/a
2609.1212	1	31	n/a	n/a	1	n/a	n/a	n/a	n/a	n/a	n/a	n/a	n/a
2613.1376	1	9	n/a	n/a	1	n/a	n/a	n/a	n/a	n/a	n/a	n/a	n/a
2614.1542	1	10	1	2391	1	0	0	1	0	0	0.8	0.8	62
2616.554	1	20	n/a	n/a	1	n/a	n/a	n/a	n/a	n/a	n/a	n/a	n/a
2620.115	1	80	n/a	n/a	1	n/a	n/a	n/a	n/a	n/a	n/a	n/a	n/a
2620.215	1	80	n/a	n/a	1	n/a	n/a	n/a	n/a	n/a	n/a	n/a	n/a
2620.6204	1	31	n/a	n/a	1	n/a	n/a	n/a	n/a	n/a	n/a	n/a	n/a
2624.637	1	9	n/a	n/a	1	n/a	n/a	n/a	n/a	n/a	n/a	n/a	n/a
2625.6536	1	10	2	794	1	0	0	1	0	0	0.1	0.1	63
2626.4534	1	20	n/a	n/a	1	n/a	n/a	n/a	n/a	n/a	n/a	n/a	n/a
2630.7594	1	80	n/a	n/a	1	n/a	n/a	n/a	n/a	n/a	n/a	n/a	n/a
2630.8594	1	80	n/a	n/a	1	n/a	n/a	n/a	n/a	n/a	n/a	n/a	n/a
2631.2698	1	31	n/a	n/a	1	n/a	n/a	n/a	n/a	n/a	n/a	n/a	n/a
2635.2862	1	9	n/a	n/a	1	n/a	n/a	n/a	n/a	n/a	n/a	n/a	n/a
2636.3028	1	10	1	1153	1	0	0	1	0	0	0.4	0.4	64
2637.4694	1	20	n/a	n/a	1	n/a	n/a	n/a	n/a	n/a	n/a	n/a	n/a
2640.3654	1	80	n/a	n/a	1	n/a	n/a	n/a	n/a	n/a	n/a	n/a	n/a
2640.4654	1	80	n/a	n/a	1	n/a	n/a	n/a	n/a	n/a	n/a	n/a	n/a
2640.8692	1	31	n/a	n/a	1	n/a	n/a	n/a	n/a	n/a	n/a	n/a	n/a
2644.8856	1	9	n/a	n/a	1	n/a	n/a	n/a	n/a	n/a	n/a	n/a	n/a
2645.9022	1	10	2	1153	1	0	0	1	0	0	0.1	0.1	65
2647.0688	1	20	n/a	n/a	1	n/a	n/a	n/a	n/a	n/a	n/a	n/a	n/a
2650.6508	1	80	n/a	n/a	1	n/a	n/a	n/a	n/a	n/a	n/a	n/a	n/a
2650.7508	1	80	n/a	n/a	1	n/a	n/a	n/a	n/a	n/a	n/a	n/a	n/a
2651.1686	1	31	n/a	n/a	1	n/a	n/a	n/a	n/a	n/a	n/a	n/a	n/a
2655.185	1	9	n/a	n/a	1	n/a	n/a	n/a	n/a	n/a	n/a	n/a	n/a
2656.2016	1	10	1	758	1	0	0	1	0	0	0.4	0.4	66
2656.9684	1	20	n/a	n/a	1	n/a	n/a	n/a	n/a	n/a	n/a	n/a	n/a
2660.1902	1	80	n/a	n/a	1	n/a	n/a	n/a	n/a	n/a	n/a	n/a	n/a
2660.2902	1	80	n/a	n/a	1	n/a	n/a	n/a	n/a	n/a	n/a	n/a	n/a
2660.7014	1	30	n/a	n/a	1	n/a	n/a	n/a	n/a	n/a	n/a	n/a	n/a
2664.7178	1	9	n/a	n/a	1	n/a	n/a	n/a	n/a	n/a	n/a	n/a	n/a
2665.7344	1	10	2	617	1	0	0	1	0	0	0.2	0.2	67
2666.3678	1	20	n/a	n/a	1	n/a	n/a	n/a	n/a	n/a	n/a	n/a	n/a
2670.1428	1	80	n/a	n/a	1	n/a	n/a	n/a	n/a	n/a	n/a	n/a	n/a
2670.2428	1	80	n/a	n/a	1	n/a	n/a	n/a	n/a	n/a	n/a	n/a	n/a
2670.6508	1	31	n/a	n/a	1	n/a	n/a	n/a	n/a	n/a	n/a	n/a	n/a
2674.6672	1	9	n/a	n/a	1	n/a	n/a	n/a	n/a	n/a	n/a	n/a	n/a
2675.6838	1	10	1	1867	1	0	0	1	0	0	0.8	0.8	68
2677.567	1	20	n/a	n/a	1	n/a	n/a	n/a	n/a	n/a	n/a	n/a	n/a
2681.684	1	80	n/a	n/a	1	n/a	n/a	n/a	n/a	n/a	n/a	n/a	n/a
2681.784	1	80	n/a	n/a	1	n/a	n/a	n/a	n/a	n/a	n/a	n/a	n/a
2682.2002	1	31	n/a	n/a	1	n/a	n/a	n/a	n/a	n/a	n/a	n/a	n/a
2686.2166	1	9	n/a	n/a	1	n/a	n/a	n/a	n/a	n/a	n/a	n/a	n/a
2687.2332	1	10	1	1421	1	0	0	1	0	0	0.8	0.8	69
2688.6664	1	20	n/a	n/a	1	n/a	n/a	n/a	n/a	n/a	n/a	n/a	n/a
2692.2684	1	80	n/a	n/a	1	n/a	n/a	n/a	n/a	n/a	n/a	n/a	n/a
2692.3684	1	80	n/a	n/a	1	n/a	n/a	n/a	n/a	n/a	n/a	n/a	n/a
2692.7828	1	31	n/a	n/a	1	n/a	n/a	n/a	n/a	n/a	n/a	n/a	n/a
2696.7992	1	9	n/a	n/a	1	n/a	n/a	n/a	n/a	n/a	n/a	n/a	n/a
2697.8158	1	10	1	1030	1	0	0	1	0	0	0.4	0.4	70
2698.8492	1	20	n/a	n/a	1	n/a	n/a	n/a	n/a	n/a	n/a	n/a	n/a
2703.2142	1	80	n/a	n/a	1	n/a	n/a	n/a	n/a	n/a	n/a	n/a	n/a
2703.3142	1	80	n/a	n/a	1	n/a	n/a	n/a	n/a	n/a	n/a	n/a	n/a
2703.7322	1	31	n/a	n/a	1	n/a	n/a	n/a	n/a	n/a	n/a	n/a	n/a
2710.7318	1	9	n/a	n/a	1	n/a	n/a	n/a	n/a	n/a	n/a	n/a	n/a
2711.7484	1	10	2	1914	1	0	0	1	0.5	0.047334	0.1	0.025	71
2713.6648	1	20	n/a	n/a	1	n/a	n/a	n/a	n/a	n/a	n/a	n/a	n/a
2717.9378	1	80	n/a	n/a	1	n/a	n/a	n/a	n/a	n/a	n/a	n/a	n/a
2718.0378	1	80	n/a	n/a	1	n/a	n/a	n/a	n/a	n/a	n/a	n/a	n/a
2718.448	1	31	n/a	n/a	1	n/a	n/a	n/a	n/a	n/a	n/a	n/a	n/a
2722.4644	1	40	n/a	n/a	1	n/a	n/a	n/a	n/a	n/a	n/a	n/a	n/a
2724.481	1	9	n/a	n/a	1	n/a	n/a	n/a	n/a	n/a	n/a	n/a	n/a
2725.4976	1	10	1	708	1	0	0	1	0.5	0.80282	0.3	0.40282	72
2726.2142	1	20	n/a	n/a	1	n/a	n/a	n/a	n/a	n/a	n/a	n/a	n/a
2730.0392	1	80	n/a	n/a	1	n/a	n/a	n/a	n/a	n/a	n/a	n/a	n/a
2730.1392	1	80	n/a	n/a	1	n/a	n/a	n/a	n/a	n/a	n/a	n/a	n/a
2730.5472	1	30	n/a	n/a	1	n/a	n/a	n/a	n/a	n/a	n/a	n/a	n/a
2734.5636	1	40	n/a	n/a	1	n/a	n/a	n/a	n/a	n/a	n/a	n/a	n/a
2736.5802	1	9	n/a	n/a	1	n/a	n/a	n/a	n/a	n/a	n/a	n/a	n/a
2737.5968	1	10	2	1905	1	0	0	1	0.5	0.92306	0.5	0.92306	73
2739.5134	1	20	n/a	n/a	1	n/a	n/a	n/a	n/a	n/a	n/a	n/a	n/a
2742.7924	1	80	n/a	n/a	1	n/a	n/a	n/a	n/a	n/a	n/a	n/a	n/a
2742.8924	1	80	n/a	n/a	1	n/a	n/a	n/a	n/a	n/a	n/a	n/a	n/a
2743.2964	1	30	n/a	n/a	1	n/a	n/a	n/a	n/a	n/a	n/a	n/a	n/a
2747.3128	1	40	n/a	n/a	1	n/a	n/a	n/a	n/a	n/a	n/a	n/a	n/a
2749.3294	1	9	n/a	n/a	1	n/a	n/a	n/a	n/a	n/a	n/a	n/a	n/a
2750.346	1	10	1	1939	1	0	0	1	0.8	0.76295	0.3	0.55179	74
2752.296	1	20	n/a	n/a	1	n/a	n/a	n/a	n/a	n/a	n/a	n/a	n/a
2756.706	1	80	n/a	n/a	1	n/a	n/a	n/a	n/a	n/a	n/a	n/a	n/a
2756.806	1	80	n/a	n/a	1	n/a	n/a	n/a	n/a	n/a	n/a	n/a	n/a
2757.2122	1	30	n/a	n/a	1	n/a	n/a	n/a	n/a	n/a	n/a	n/a	n/a
2761.2288	1	40	n/a	n/a	1	n/a	n/a	n/a	n/a	n/a	n/a	n/a	n/a
2763.2452	1	9	n/a	n/a	1	n/a	n/a	n/a	n/a	n/a	n/a	n/a	n/a
2764.2618	1	10	1	2423	1	0	0	1	0.6	0.17488	0.8	0.76232	75
2766.695	1	20	n/a	n/a	1	n/a	n/a	n/a	n/a	n/a	n/a	n/a	n/a
2769.687	1	80	n/a	n/a	1	n/a	n/a	n/a	n/a	n/a	n/a	n/a	n/a
2769.787	1	80	n/a	n/a	1	n/a	n/a	n/a	n/a	n/a	n/a	n/a	n/a
2770.1948	1	31	n/a	n/a	1	n/a	n/a	n/a	n/a	n/a	n/a	n/a	n/a
2774.2112	1	40	n/a	n/a	1	n/a	n/a	n/a	n/a	n/a	n/a	n/a	n/a
2776.2278	1	9	n/a	n/a	1	n/a	n/a	n/a	n/a	n/a	n/a	n/a	n/a
2777.2444	1	10	2	1264	1	0	0	1	0.6	0.48307	0.4	0.22461	76
2778.511	1	20	n/a	n/a	1	n/a	n/a	n/a	n/a	n/a	n/a	n/a	n/a
2781.034	1	80	n/a	n/a	1	n/a	n/a	n/a	n/a	n/a	n/a	n/a	n/a
2781.134	1	80	n/a	n/a	1	n/a	n/a	n/a	n/a	n/a	n/a	n/a	n/a
2781.5442	1	30	n/a	n/a	1	n/a	n/a	n/a	n/a	n/a	n/a	n/a	n/a
2785.5606	1	40	n/a	n/a	1	n/a	n/a	n/a	n/a	n/a	n/a	n/a	n/a
2787.5772	1	9	n/a	n/a	1	n/a	n/a	n/a	n/a	n/a	n/a	n/a	n/a
2788.5938	1	10	2	3451	1	0	0	1	0.7	0.056115	0.8	0.46427	77
2792.0602	1	20	n/a	n/a	1	n/a	n/a	n/a	n/a	n/a	n/a	n/a	n/a
2794.8262	1	80	n/a	n/a	1	n/a	n/a	n/a	n/a	n/a	n/a	n/a	n/a
2794.9262	1	80	n/a	n/a	1	n/a	n/a	n/a	n/a	n/a	n/a	n/a	n/a
2795.3434	1	30	n/a	n/a	1	n/a	n/a	n/a	n/a	n/a	n/a	n/a	n/a
2799.3598	1	40	n/a	n/a	1	n/a	n/a	n/a	n/a	n/a	n/a	n/a	n/a
2801.3764	1	9	n/a	n/a	1	n/a	n/a	n/a	n/a	n/a	n/a	n/a	n/a
2802.393	1	10	2	2963	1	0	0	1	0.7	0.77265	0.2	0.13618	78
2805.3594	1	20	n/a	n/a	1	n/a	n/a	n/a	n/a	n/a	n/a	n/a	n/a
2809.4704	1	80	n/a	n/a	1	n/a	n/a	n/a	n/a	n/a	n/a	n/a	n/a
2809.5704	1	80	n/a	n/a	1	n/a	n/a	n/a	n/a	n/a	n/a	n/a	n/a
2809.9758	1	31	n/a	n/a	1	n/a	n/a	n/a	n/a	n/a	n/a	n/a	n/a
2813.9922	1	40	n/a	n/a	1	n/a	n/a	n/a	n/a	n/a	n/a	n/a	n/a
2816.0088	1	9	n/a	n/a	1	n/a	n/a	n/a	n/a	n/a	n/a	n/a	n/a
2817.0254	1	10	1	2362	1	0	0	1	0.5	0.66228	0.8	0.975	79
2819.392	1	20	n/a	n/a	1	n/a	n/a	n/a	n/a	n/a	n/a	n/a	n/a
2822.997	1	80	n/a	n/a	1	n/a	n/a	n/a	n/a	n/a	n/a	n/a	n/a
2823.0968	1	80	n/a	n/a	1	n/a	n/a	n/a	n/a	n/a	n/a	n/a	n/a
2823.5084	1	31	n/a	n/a	1	n/a	n/a	n/a	n/a	n/a	n/a	n/a	n/a
2827.5248	1	40	n/a	n/a	1	n/a	n/a	n/a	n/a	n/a	n/a	n/a	n/a
2829.5414	1	9	n/a	n/a	1	n/a	n/a	n/a	n/a	n/a	n/a	n/a	n/a
2830.558	1	10	1	2637	1	0	0	1	0.6	0.7617	0.2	0.14255	80
2833.2078	1	20	n/a	n/a	1	n/a	n/a	n/a	n/a	n/a	n/a	n/a	n/a
2836.9688	1	80	n/a	n/a	1	n/a	n/a	n/a	n/a	n/a	n/a	n/a	n/a
2837.0688	1	80	n/a	n/a	1	n/a	n/a	n/a	n/a	n/a	n/a	n/a	n/a
2837.4742	1	30	n/a	n/a	1	n/a	n/a	n/a	n/a	n/a	n/a	n/a	n/a
2841.4906	1	40	n/a	n/a	1	n/a	n/a	n/a	n/a	n/a	n/a	n/a	n/a
2846.507	1	9	n/a	n/a	1	n/a	n/a	n/a	n/a	n/a	n/a	n/a	n/a
2847.5236	1	10	2	455	1	0	0	1	0	0	0.1	0.1	81
2847.9902	1	20	n/a	n/a	1	n/a	n/a	n/a	n/a	n/a	n/a	n/a	n/a
2852.3362	1	80	n/a	n/a	1	n/a	n/a	n/a	n/a	n/a	n/a	n/a	n/a
2852.4362	1	80	n/a	n/a	1	n/a	n/a	n/a	n/a	n/a	n/a	n/a	n/a
2852.84	1	31	n/a	n/a	1	n/a	n/a	n/a	n/a	n/a	n/a	n/a	n/a
2856.8564	1	9	n/a	n/a	1	n/a	n/a	n/a	n/a	n/a	n/a	n/a	n/a
2857.873	1	10	1	490	1	0	0	1	0	0	0.7	0.7	82
2858.373	1	20	n/a	n/a	1	n/a	n/a	n/a	n/a	n/a	n/a	n/a	n/a
2861.474	1	80	n/a	n/a	1	n/a	n/a	n/a	n/a	n/a	n/a	n/a	n/a
2861.574	1	80	n/a	n/a	1	n/a	n/a	n/a	n/a	n/a	n/a	n/a	n/a
2861.9894	1	31	n/a	n/a	1	n/a	n/a	n/a	n/a	n/a	n/a	n/a	n/a
2866.0058	1	9	n/a	n/a	1	n/a	n/a	n/a	n/a	n/a	n/a	n/a	n/a
2867.0224	1	10	1	1100	1	0	0	1	0	0	0.4	0.4	83
2868.139	1	20	n/a	n/a	1	n/a	n/a	n/a	n/a	n/a	n/a	n/a	n/a
2872.122	1	80	n/a	n/a	1	n/a	n/a	n/a	n/a	n/a	n/a	n/a	n/a
2872.222	1	80	n/a	n/a	1	n/a	n/a	n/a	n/a	n/a	n/a	n/a	n/a
2872.6388	1	31	n/a	n/a	1	n/a	n/a	n/a	n/a	n/a	n/a	n/a	n/a
2876.6552	1	9	n/a	n/a	1	n/a	n/a	n/a	n/a	n/a	n/a	n/a	n/a
2877.6718	1	10	2	530	1	0	0	1	0	0	0.2	0.2	84
2878.205	1	20	n/a	n/a	1	n/a	n/a	n/a	n/a	n/a	n/a	n/a	n/a
2881.489	1	80	n/a	n/a	1	n/a	n/a	n/a	n/a	n/a	n/a	n/a	n/a
2881.589	1	80	n/a	n/a	1	n/a	n/a	n/a	n/a	n/a	n/a	n/a	n/a
2882.0048	1	31	n/a	n/a	1	n/a	n/a	n/a	n/a	n/a	n/a	n/a	n/a
2886.0212	1	9	n/a	n/a	1	n/a	n/a	n/a	n/a	n/a	n/a	n/a	n/a
2887.0378	1	10	2	1500	1	0	0	1	0	0	0.1	0.1	85
2888.5544	1	20	n/a	n/a	1	n/a	n/a	n/a	n/a	n/a	n/a	n/a	n/a
2891.6124	1	80	n/a	n/a	1	n/a	n/a	n/a	n/a	n/a	n/a	n/a	n/a
2891.7124	1	80	n/a	n/a	1	n/a	n/a	n/a	n/a	n/a	n/a	n/a	n/a
2892.1208	1	31	n/a	n/a	1	n/a	n/a	n/a	n/a	n/a	n/a	n/a	n/a
2896.1374	1	9	n/a	n/a	1	n/a	n/a	n/a	n/a	n/a	n/a	n/a	n/a
2897.154	1	10	1	2744	1	0	0	1	0	0	0.5	0.5	86
2899.9038	1	20	n/a	n/a	1	n/a	n/a	n/a	n/a	n/a	n/a	n/a	n/a
2904.2278	1	80	n/a	n/a	1	n/a	n/a	n/a	n/a	n/a	n/a	n/a	n/a
2904.3278	1	80	n/a	n/a	1	n/a	n/a	n/a	n/a	n/a	n/a	n/a	n/a
2904.7368	1	31	n/a	n/a	1	n/a	n/a	n/a	n/a	n/a	n/a	n/a	n/a
2908.7532	1	9	n/a	n/a	1	n/a	n/a	n/a	n/a	n/a	n/a	n/a	n/a
2909.7698	1	10	1	768	1	0	0	1	0	0	0.9	0.9	87
2910.5532	1	20	n/a	n/a	1	n/a	n/a	n/a	n/a	n/a	n/a	n/a	n/a
2914.4272	1	80	n/a	n/a	1	n/a	n/a	n/a	n/a	n/a	n/a	n/a	n/a
2914.5272	1	80	n/a	n/a	1	n/a	n/a	n/a	n/a	n/a	n/a	n/a	n/a
2914.9362	1	30	n/a	n/a	1	n/a	n/a	n/a	n/a	n/a	n/a	n/a	n/a
2918.9526	1	9	n/a	n/a	1	n/a	n/a	n/a	n/a	n/a	n/a	n/a	n/a
2919.9692	1	10	2	1960	1	0	0	1	0	0	0.6	0.6	88
2921.9358	1	20	n/a	n/a	1	n/a	n/a	n/a	n/a	n/a	n/a	n/a	n/a
2925.1858	1	80	n/a	n/a	1	n/a	n/a	n/a	n/a	n/a	n/a	n/a	n/a
2925.2858	1	80	n/a	n/a	1	n/a	n/a	n/a	n/a	n/a	n/a	n/a	n/a
2925.7022	1	30	n/a	n/a	1	n/a	n/a	n/a	n/a	n/a	n/a	n/a	n/a
2929.7186	1	9	n/a	n/a	1	n/a	n/a	n/a	n/a	n/a	n/a	n/a	n/a
2930.7352	1	10	1	4314	1	0	0	1	0	0	0.2	0.2	89
2935.0516	1	20	n/a	n/a	1	n/a	n/a	n/a	n/a	n/a	n/a	n/a	n/a
2938.3956	1	80	n/a	n/a	1	n/a	n/a	n/a	n/a	n/a	n/a	n/a	n/a
2938.4956	1	80	n/a	n/a	1	n/a	n/a	n/a	n/a	n/a	n/a	n/a	n/a
2938.9014	1	30	n/a	n/a	1	n/a	n/a	n/a	n/a	n/a	n/a	n/a	n/a
2942.9178	1	9	n/a	n/a	1	n/a	n/a	n/a	n/a	n/a	n/a	n/a	n/a
2943.9344	1	10	2	1626	1	0	0	1	0	0	0.3	0.3	90
2945.5676	1	20	n/a	n/a	1	n/a	n/a	n/a	n/a	n/a	n/a	n/a	n/a
2948.7116	1	80	n/a	n/a	1	n/a	n/a	n/a	n/a	n/a	n/a	n/a	n/a
2948.8116	1	80	n/a	n/a	1	n/a	n/a	n/a	n/a	n/a	n/a	n/a	n/a
2949.2174	1	31	n/a	n/a	1	n/a	n/a	n/a	n/a	n/a	n/a	n/a	n/a
2956.2338	1	9	n/a	n/a	1	n/a	n/a	n/a	n/a	n/a	n/a	n/a	n/a
2957.2504	1	10	1	1622	1	0	0	1	0.5	0.36376	0.7	0.76376	91
2958.8836	1	20	n/a	n/a	1	n/a	n/a	n/a	n/a	n/a	n/a	n/a	n/a
2961.9646	1	80	n/a	n/a	1	n/a	n/a	n/a	n/a	n/a	n/a	n/a	n/a
2962.0646	1	80	n/a	n/a	1	n/a	n/a	n/a	n/a	n/a	n/a	n/a	n/a
2962.4666	1	31	n/a	n/a	1	n/a	n/a	n/a	n/a	n/a	n/a	n/a	n/a
2966.4832	1	40	n/a	n/a	1	n/a	n/a	n/a	n/a	n/a	n/a	n/a	n/a
2968.4996	1	9	n/a	n/a	1	n/a	n/a	n/a	n/a	n/a	n/a	n/a	n/a
2969.5162	1	10	2	732	1	0	0	1	0.6	0.52034	0.1	0.03125	92
2970.2662	1	20	n/a	n/a	1	n/a	n/a	n/a	n/a	n/a	n/a	n/a	n/a
2973.0072	1	80	n/a	n/a	1	n/a	n/a	n/a	n/a	n/a	n/a	n/a	n/a
2973.1072	1	80	n/a	n/a	1	n/a	n/a	n/a	n/a	n/a	n/a	n/a	n/a
2973.516	1	31	n/a	n/a	1	n/a	n/a	n/a	n/a	n/a	n/a	n/a	n/a
2977.5324	1	40	n/a	n/a	1	n/a	n/a	n/a	n/a	n/a	n/a	n/a	n/a
2979.549	1	9	n/a	n/a	1	n/a	n/a	n/a	n/a	n/a	n/a	n/a	n/a
2980.5656	1	10	1	1474	1	0	0	1	0.6	0.38824	0.5	0.33236	93
2982.0488	1	20	n/a	n/a	1	n/a	n/a	n/a	n/a	n/a	n/a	n/a	n/a
2986.0538	1	80	n/a	n/a	1	n/a	n/a	n/a	n/a	n/a	n/a	n/a	n/a
2986.1538	1	80	n/a	n/a	1	n/a	n/a	n/a	n/a	n/a	n/a	n/a	n/a
2986.5652	1	30	n/a	n/a	1	n/a	n/a	n/a	n/a	n/a	n/a	n/a	n/a
2990.5816	1	40	n/a	n/a	1	n/a	n/a	n/a	n/a	n/a	n/a	n/a	n/a
2992.5982	1	9	n/a	n/a	1	n/a	n/a	n/a	n/a	n/a	n/a	n/a	n/a
2993.6148	1	10	1	1081	1	0	0	1	0.6	0.28235	0.8	0.92353	94
2994.698	1	20	n/a	n/a	1	n/a	n/a	n/a	n/a	n/a	n/a	n/a	n/a
2998.93	1	80	n/a	n/a	1	n/a	n/a	n/a	n/a	n/a	n/a	n/a	n/a
2999.03	1	80	n/a	n/a	1	n/a	n/a	n/a	n/a	n/a	n/a	n/a	n/a
2999.4478	1	31	n/a	n/a	1	n/a	n/a	n/a	n/a	n/a	n/a	n/a	n/a
3003.4642	1	40	n/a	n/a	1	n/a	n/a	n/a	n/a	n/a	n/a	n/a	n/a
3005.4808	1	9	n/a	n/a	1	n/a	n/a	n/a	n/a	n/a	n/a	n/a	n/a
3006.4974	1	10	2	853	1	0	0	1	0.6	0.74062	0.3	0.36093	95
3007.364	1	20	n/a	n/a	1	n/a	n/a	n/a	n/a	n/a	n/a	n/a	n/a
3010.368	1	80	n/a	n/a	1	n/a	n/a	n/a	n/a	n/a	n/a	n/a	n/a
3010.468	1	80	n/a	n/a	1	n/a	n/a	n/a	n/a	n/a	n/a	n/a	n/a
3010.8804	1	31	n/a	n/a	1	n/a	n/a	n/a	n/a	n/a	n/a	n/a	n/a
3014.8968	1	40	n/a	n/a	1	n/a	n/a	n/a	n/a	n/a	n/a	n/a	n/a
3016.9134	1	9	n/a	n/a	1	n/a	n/a	n/a	n/a	n/a	n/a	n/a	n/a
3017.93	1	10	1	1629	1	0	0	1	0.8	0.37112	0.9	0.9375	96
3019.5632	1	20	n/a	n/a	1	n/a	n/a	n/a	n/a	n/a	n/a	n/a	n/a
3022.7792	1	80	n/a	n/a	1	n/a	n/a	n/a	n/a	n/a	n/a	n/a	n/a
3022.8792	1	80	n/a	n/a	1	n/a	n/a	n/a	n/a	n/a	n/a	n/a	n/a
3023.2964	1	31	n/a	n/a	1	n/a	n/a	n/a	n/a	n/a	n/a	n/a	n/a
3027.3128	1	40	n/a	n/a	1	n/a	n/a	n/a	n/a	n/a	n/a	n/a	n/a
3029.3294	1	9	n/a	n/a	1	n/a	n/a	n/a	n/a	n/a	n/a	n/a	n/a
3030.346	1	10	1	877	1	0	0	1	0.8	0.29356	0.9	0.9375	97
3031.2292	1	20	n/a	n/a	1	n/a	n/a	n/a	n/a	n/a	n/a	n/a	n/a
3034.3242	1	80	n/a	n/a	1	n/a	n/a	n/a	n/a	n/a	n/a	n/a	n/a
3034.4242	1	80	n/a	n/a	1	n/a	n/a	n/a	n/a	n/a	n/a	n/a	n/a
3034.829	1	31	n/a	n/a	1	n/a	n/a	n/a	n/a	n/a	n/a	n/a	n/a
3038.8454	1	40	n/a	n/a	1	n/a	n/a	n/a	n/a	n/a	n/a	n/a	n/a
3040.862	1	9	n/a	n/a	1	n/a	n/a	n/a	n/a	n/a	n/a	n/a	n/a
3041.8786	1	10	2	624	1	0	0	1	0.7	0.31956	0.1	0.041667	98
3042.5118	1	20	n/a	n/a	1	n/a	n/a	n/a	n/a	n/a	n/a	n/a	n/a
3045.4698	1	80	n/a	n/a	1	n/a	n/a	n/a	n/a	n/a	n/a	n/a	n/a
3045.5698	1	80	n/a	n/a	1	n/a	n/a	n/a	n/a	n/a	n/a	n/a	n/a
3045.9784	1	31	n/a	n/a	1	n/a	n/a	n/a	n/a	n/a	n/a	n/a	n/a
3049.9948	1	40	n/a	n/a	1	n/a	n/a	n/a	n/a	n/a	n/a	n/a	n/a
3052.0114	1	9	n/a	n/a	1	n/a	n/a	n/a	n/a	n/a	n/a	n/a	n/a
3053.028	1	10	2	1235	1	0	0	1	0.8	0.96087	0.1	0.34349	99
3054.2778	1	20	n/a	n/a	1	n/a	n/a	n/a	n/a	n/a	n/a	n/a	n/a
3057.9848	1	80	n/a	n/a	1	n/a	n/a	n/a	n/a	n/a	n/a	n/a	n/a
3058.0848	1	80	n/a	n/a	1	n/a	n/a	n/a	n/a	n/a	n/a	n/a	n/a
3058.4942	1	31	n/a	n/a	1	n/a	n/a	n/a	n/a	n/a	n/a	n/a	n/a
3062.5106	1	40	n/a	n/a	1	n/a	n/a	n/a	n/a	n/a	n/a	n/a	n/a
3064.5272	1	9	n/a	n/a	1	n/a	n/a	n/a	n/a	n/a	n/a	n/a	n/a
3065.5438	1	10	1	766	1	0	0	1	0.6	0.14421	0.9	0.96631	100
3066.3272	1	20	n/a	n/a	1	n/a	n/a	n/a	n/a	n/a	n/a	n/a	n/a
3069.4152	1	80	n/a	n/a	1	n/a	n/a	n/a	n/a	n/a	n/a	n/a	n/a
3069.5152	1	80	n/a	n/a	1	n/a	n/a	n/a	n/a	n/a	n/a	n/a	n/a
3069.927	1	31	n/a	n/a	1	n/a	n/a	n/a	n/a	n/a	n/a	n/a	n/a
3073.9434	1	40	n/a	n/a	1	n/a	n/a	n/a	n/a	n/a	n/a	n/a	n/a
