onset	duration	value	response	rt	good	a	bias	p	pv	ronda
3.4328	1	9	-99	-99	1	n/a	n/a	n/a	n/a	n/a
4.4472	1	10	1	1737.5	1	0	0	0.5	0.5	1
6.1933	1	20	-99	-99	1	n/a	n/a	n/a	n/a	n/a
9.3031	1	31	-99	-99	1	n/a	n/a	n/a	n/a	n/a
13.3607	1	9	-99	-99	1	n/a	n/a	n/a	n/a	n/a
14.3751	1	10	2	1152.9	1	0	0	0.1	0.1	2
15.5392	1	20	-99	-99	1	n/a	n/a	n/a	n/a	n/a
18.5824	1	31	-99	-99	1	n/a	n/a	n/a	n/a	n/a
22.5901	1	9	-99	-99	1	n/a	n/a	n/a	n/a	n/a
23.6045	1	10	2	1211.6	1	0	0	0.2	0.2	3
24.8185	1	20	-99	-99	1	n/a	n/a	n/a	n/a	n/a
28.8927	1	31	-99	-99	1	n/a	n/a	n/a	n/a	n/a
32.9005	1	9	-99	-99	1	n/a	n/a	n/a	n/a	n/a
33.9149	1	10	1	1052.5	1	0	0	0.9	0.9	4
34.9791	1	20	-99	-99	1	n/a	n/a	n/a	n/a	n/a
38.039	1	31	-99	-99	1	n/a	n/a	n/a	n/a	n/a
42.0467	1	9	-99	-99	1	n/a	n/a	n/a	n/a	n/a
43.0611	1	10	2	2882.9	1	0.6	0.96127	0.3	0.6919	1
45.9547	1	20	-99	-99	1	n/a	n/a	n/a	n/a	n/a
50.428	1	30	-99	-99	1	n/a	n/a	n/a	n/a	n/a
54.4358	1	40	-99	-99	1	n/a	n/a	n/a	n/a	n/a
59.4413	1	9	-99	-99	1	n/a	n/a	n/a	n/a	n/a
60.4557	1	10	1	1430.3	1	0.5	0.81151	0.5	0.81151	2
61.9024	1	20	-99	-99	1	n/a	n/a	n/a	n/a	n/a
66.01	1	31	-99	-99	1	n/a	n/a	n/a	n/a	n/a
70.0177	1	40	-99	-99	1	n/a	n/a	n/a	n/a	n/a
72.0299	1	9	-99	-99	1	n/a	n/a	n/a	n/a	n/a
73.0443	1	10	2	2586.6	1	0.6	0.14506	0.8	0.71759	3
75.6385	1	20	-99	-99	1	n/a	n/a	n/a	n/a	n/a
79.7793	1	30	-99	-99	1	n/a	n/a	n/a	n/a	n/a
83.787	1	40	-99	-99	1	n/a	n/a	n/a	n/a	n/a
85.7992	1	9	-99	-99	1	n/a	n/a	n/a	n/a	n/a
86.8136	1	10	1	2262.6	1	0.7	0.71254	0.4	0.66258	4
89.0918	1	20	-99	-99	1	n/a	n/a	n/a	n/a	n/a
92.318	1	31	-99	-99	1	n/a	n/a	n/a	n/a	n/a
96.3257	1	40	-99	-99	1	n/a	n/a	n/a	n/a	n/a
98.3379	1	9	-99	-99	1	n/a	n/a	n/a	n/a	n/a
99.3523	1	10	2	1301	1	0	0	0.1	0.1	1
100.666	1	20	-99	-99	1	n/a	n/a	n/a	n/a	n/a
104.2913	1	30	-99	-99	1	n/a	n/a	n/a	n/a	n/a
108.299	1	9	-99	-99	1	n/a	n/a	n/a	n/a	n/a
109.3134	1	10	1	1940.7	1	0	0	0.5	0.5	2
111.2591	1	20	-99	-99	1	n/a	n/a	n/a	n/a	n/a
115.3333	1	31	-99	-99	1	n/a	n/a	n/a	n/a	n/a
122.351	1	9	-99	-99	1	n/a	n/a	n/a	n/a	n/a
123.3654	1	10	1	2083.8	1	0	0	0.4	0.4	3
125.4607	1	20	-99	-99	1	n/a	n/a	n/a	n/a	n/a
129.535	1	30	-99	-99	1	n/a	n/a	n/a	n/a	n/a
133.5427	1	9	-99	-99	1	n/a	n/a	n/a	n/a	n/a
134.5571	1	10	2	1543.3	1	0	0	0.2	0.2	4
136.1037	1	20	-99	-99	1	n/a	n/a	n/a	n/a	n/a
139.9285	1	31	-99	-99	1	n/a	n/a	n/a	n/a	n/a
143.9362	1	9	-99	-99	1	n/a	n/a	n/a	n/a	n/a
144.9506	1	10	2	2059	1	0.6	0.37387	0.4	0.060804	1
147.0127	1	20	-99	-99	1	n/a	n/a	n/a	n/a	n/a
150.7543	1	30	-99	-99	1	n/a	n/a	n/a	n/a	n/a
154.7621	1	40	-99	-99	1	n/a	n/a	n/a	n/a	n/a
156.7743	1	9	-99	-99	1	n/a	n/a	n/a	n/a	n/a
157.7887	1	10	1	2788.3	1	0.8	0.76905	0.3	0.57619	2
160.5825	1	20	-99	-99	1	n/a	n/a	n/a	n/a	n/a
163.8418	1	31	-99	-99	1	n/a	n/a	n/a	n/a	n/a
167.8496	1	40	-99	-99	1	n/a	n/a	n/a	n/a	n/a
169.8618	1	9	-99	-99	1	n/a	n/a	n/a	n/a	n/a
170.8762	1	10	2	1634.4	1	0.8	0.59895	0.9	0.9375	3
172.5225	1	20	-99	-99	1	n/a	n/a	n/a	n/a	n/a
176.5801	1	30	-99	-99	1	n/a	n/a	n/a	n/a	n/a
180.5878	1	40	-99	-99	1	n/a	n/a	n/a	n/a	n/a
185.61	1	9	-99	-99	1	n/a	n/a	n/a	n/a	n/a
186.6244	1	10	2	1322.8	1	0.8	0.88471	0.2	0.53884	4
187.9548	1	20	-99	-99	1	n/a	n/a	n/a	n/a	n/a
192.2785	1	31	-99	-99	1	n/a	n/a	n/a	n/a	n/a
196.2862	1	40	-99	-99	1	n/a	n/a	n/a	n/a	n/a
198.2984	1	9	-99	-99	1	n/a	n/a	n/a	n/a	n/a
199.3128	1	10	2	1631	1	0	0	0.1	0.1	1
200.9591	1	20	-99	-99	1	n/a	n/a	n/a	n/a	n/a
204.9336	1	31	-99	-99	1	n/a	n/a	n/a	n/a	n/a
208.9579	1	9	-99	-99	1	n/a	n/a	n/a	n/a	n/a
209.9723	1	10	2	1781.8	1	0	0	0.1	0.1	2
211.7683	1	20	-99	-99	1	n/a	n/a	n/a	n/a	n/a
214.8614	1	31	-99	-99	1	n/a	n/a	n/a	n/a	n/a
218.8858	1	9	-99	-99	1	n/a	n/a	n/a	n/a	n/a
219.9002	1	10	1	1695	1	0	0	0.2	0.2	3
221.613	1	20	-99	-99	1	n/a	n/a	n/a	n/a	n/a
225.4379	1	30	-99	-99	1	n/a	n/a	n/a	n/a	n/a
229.4622	1	9	-99	-99	1	n/a	n/a	n/a	n/a	n/a
230.4766	1	10	1	1563.2	1	0	0	0.8	0.8	4
232.0564	1	20	-99	-99	1	n/a	n/a	n/a	n/a	n/a
235.5653	1	31	-99	-99	1	n/a	n/a	n/a	n/a	n/a
242.583	1	9	-99	-99	1	n/a	n/a	n/a	n/a	n/a
243.5974	1	10	2	1598.6	1	0.6	0.83899	0.4	0.75849	1
245.2104	1	20	-99	-99	1	n/a	n/a	n/a	n/a	n/a
248.3701	1	31	-99	-99	1	n/a	n/a	n/a	n/a	n/a
252.3778	1	40	-99	-99	1	n/a	n/a	n/a	n/a	n/a
254.39	1	9	-99	-99	1	n/a	n/a	n/a	n/a	n/a
255.4044	1	10	2	1828.9	1	0.4	0.89951	0.1	0.099674	2
257.2503	1	20	-99	-99	1	n/a	n/a	n/a	n/a	n/a
260.3101	1	31	-99	-99	1	n/a	n/a	n/a	n/a	n/a
264.3178	1	40	-99	-99	1	n/a	n/a	n/a	n/a	n/a
266.33	1	9	-99	-99	1	n/a	n/a	n/a	n/a	n/a
267.3444	1	10	1	1549.2	1	0.5	0.53042	0.5	0.53042	3
268.9076	1	20	-99	-99	1	n/a	n/a	n/a	n/a	n/a
271.7679	1	30	-99	-99	1	n/a	n/a	n/a	n/a	n/a
275.7756	1	40	-99	-99	1	n/a	n/a	n/a	n/a	n/a
277.7878	1	9	-99	-99	1	n/a	n/a	n/a	n/a	n/a
278.8022	1	10	1	2355	1	0.6	0.66077	0.3	0.24116	4
281.1636	1	20	-99	-99	1	n/a	n/a	n/a	n/a	n/a
284.1071	1	30	-99	-99	1	n/a	n/a	n/a	n/a	n/a
288.1148	1	40	-99	-99	1	n/a	n/a	n/a	n/a	n/a
290.127	1	9	-99	-99	1	n/a	n/a	n/a	n/a	n/a
291.1414	1	10	1	2340	1	0	0	0.6	0.6	1
293.4861	1	20	-99	-99	1	n/a	n/a	n/a	n/a	n/a
297.7101	1	30	-99	-99	1	n/a	n/a	n/a	n/a	n/a
304.7277	1	9	-99	-99	1	n/a	n/a	n/a	n/a	n/a
305.7421	1	10	2	1266.7	1	0	0	0.3	0.3	2
307.0226	1	20	-99	-99	1	n/a	n/a	n/a	n/a	n/a
311.2798	1	30	-99	-99	1	n/a	n/a	n/a	n/a	n/a
315.3042	1	9	-99	-99	1	n/a	n/a	n/a	n/a	n/a
316.3186	1	10	2	2985.1	1	0	0	0.4	0.4	3
319.3119	1	20	-99	-99	1	n/a	n/a	n/a	n/a	n/a
322.8041	1	31	-99	-99	1	n/a	n/a	n/a	n/a	n/a
326.8285	1	9	-99	-99	1	n/a	n/a	n/a	n/a	n/a
327.8429	1	10	2	1110.5	1	0	0	0.1	0.1	4
328.9571	1	20	-99	-99	1	n/a	n/a	n/a	n/a	n/a
332.9315	1	31	-99	-99	1	n/a	n/a	n/a	n/a	n/a
336.9559	1	9	-99	-99	1	n/a	n/a	n/a	n/a	n/a
337.9703	1	10	2	2183.7	1	0.6	0.22661	0.7	0.58991	1
340.1654	1	20	-99	-99	1	n/a	n/a	n/a	n/a	n/a
342.9592	1	30	-99	-99	1	n/a	n/a	n/a	n/a	n/a
346.9669	1	40	-99	-99	1	n/a	n/a	n/a	n/a	n/a
348.9791	1	9	-99	-99	1	n/a	n/a	n/a	n/a	n/a
349.9935	1	10	1	2221.1	1	0.8	0.45803	0.1	0.0625	2
352.2219	1	20	-99	-99	1	n/a	n/a	n/a	n/a	n/a
356.6121	1	30	-99	-99	1	n/a	n/a	n/a	n/a	n/a
360.6198	1	40	-99	-99	1	n/a	n/a	n/a	n/a	n/a
365.6419	1	9	-99	-99	1	n/a	n/a	n/a	n/a	n/a
366.6563	1	10	1	1397.5	1	0.7	0.60715	0.3	0.083359	3
368.0699	1	20	-99	-99	1	n/a	n/a	n/a	n/a	n/a
371.5787	1	30	-99	-99	1	n/a	n/a	n/a	n/a	n/a
375.5864	1	40	-99	-99	1	n/a	n/a	n/a	n/a	n/a
377.5986	1	9	-99	-99	1	n/a	n/a	n/a	n/a	n/a
378.613	1	10	1	1596.7	1	0.5	0.6583	0.6	0.8583	4
380.2261	1	20	-99	-99	1	n/a	n/a	n/a	n/a	n/a
384.2671	1	30	-99	-99	1	n/a	n/a	n/a	n/a	n/a
388.2748	1	40	-99	-99	1	n/a	n/a	n/a	n/a	n/a
390.287	1	9	-99	-99	1	n/a	n/a	n/a	n/a	n/a
391.3014	1	10	1	1145.1	1	0	0	0.8	0.8	1
392.4488	1	20	-99	-99	1	n/a	n/a	n/a	n/a	n/a
395.3091	1	31	-99	-99	1	n/a	n/a	n/a	n/a	n/a
399.3335	1	9	-99	-99	1	n/a	n/a	n/a	n/a	n/a
400.3479	1	10	1	794.2	1	0	0	0.8	0.8	2
401.1461	1	20	-99	-99	1	n/a	n/a	n/a	n/a	n/a
403.7071	1	31	-99	-99	1	n/a	n/a	n/a	n/a	n/a
407.7314	1	9	-99	-99	1	n/a	n/a	n/a	n/a	n/a
408.7458	1	10	2	2236.4	1	0	0	0.2	0.2	3
410.9908	1	20	-99	-99	1	n/a	n/a	n/a	n/a	n/a
414.5828	1	30	-99	-99	1	n/a	n/a	n/a	n/a	n/a
421.6005	1	9	-99	-99	1	n/a	n/a	n/a	n/a	n/a
422.6149	1	10	2	1569.1	1	0	0	0.3	0.3	4
424.1947	1	20	-99	-99	1	n/a	n/a	n/a	n/a	n/a
426.8388	1	31	-99	-99	1	n/a	n/a	n/a	n/a	n/a
430.8632	1	9	-99	-99	1	n/a	n/a	n/a	n/a	n/a
431.8776	1	10	2	1735	1	0.7	0.050325	0.9	0.78409	1
433.6237	1	20	-99	-99	1	n/a	n/a	n/a	n/a	n/a
436.9164	1	31	-99	-99	1	n/a	n/a	n/a	n/a	n/a
440.9241	1	40	-99	-99	1	n/a	n/a	n/a	n/a	n/a
442.9529	1	9	-99	-99	1	n/a	n/a	n/a	n/a	n/a
443.9673	1	10	2	3606.2	1	0.6	0.068498	0.1	0.03125	2
447.5759	1	20	-99	-99	1	n/a	n/a	n/a	n/a	n/a
451.9662	1	31	-99	-99	1	n/a	n/a	n/a	n/a	n/a
455.9739	1	40	-99	-99	1	n/a	n/a	n/a	n/a	n/a
458.0027	1	9	-99	-99	1	n/a	n/a	n/a	n/a	n/a
459.0171	1	10	1	2743.5	1	0.8	0.89259	0.9	0.9375	3
461.7776	1	20	-99	-99	1	n/a	n/a	n/a	n/a	n/a
464.9705	1	31	-99	-99	1	n/a	n/a	n/a	n/a	n/a
468.9782	1	40	-99	-99	1	n/a	n/a	n/a	n/a	n/a
471.007	1	9	-99	-99	1	n/a	n/a	n/a	n/a	n/a
472.0214	1	10	2	3441	1	0.5	0.35441	0.6	0.55441	4
475.4804	1	20	-99	-99	1	n/a	n/a	n/a	n/a	n/a
478.7065	1	30	-99	-99	1	n/a	n/a	n/a	n/a	n/a
482.7143	1	40	-99	-99	1	n/a	n/a	n/a	n/a	n/a
