onset	duration	value	response	rt	good	TMSips	TMSppc	TMSvertex	a	bias	p	pv	ronda
113.4112	1	10	3373.2	3373.2	1	0	1	0	0	0	0.9	0.9	1
116.7078	1	20	n/a	n/a	1	n/a	n/a	n/a	n/a	n/a	n/a	n/a	n/a
117.931	1	80	n/a	n/a	1	n/a	n/a	n/a	n/a	n/a	n/a	n/a	n/a
118.0286	1	80	n/a	n/a	1	n/a	n/a	n/a	n/a	n/a	n/a	n/a	n/a
118.2342	1	31	n/a	n/a	1	n/a	n/a	n/a	n/a	n/a	n/a	n/a	n/a
120.1978	1	10	3558.8	3558.8	1	0	1	0	0	0	0.2	0.2	2
123.672	1	20	n/a	n/a	1	n/a	n/a	n/a	n/a	n/a	n/a	n/a	n/a
125.168	1	80	n/a	n/a	1	n/a	n/a	n/a	n/a	n/a	n/a	n/a	n/a
125.2656	1	80	n/a	n/a	1	n/a	n/a	n/a	n/a	n/a	n/a	n/a	n/a
125.474	1	30	n/a	n/a	1	n/a	n/a	n/a	n/a	n/a	n/a	n/a	n/a
127.4378	1	10	1853.7	1853.7	1	0	1	0	0	0	0.3	0.3	3
129.256	1	20	n/a	n/a	1	n/a	n/a	n/a	n/a	n/a	n/a	n/a	n/a
130.3548	1	80	n/a	n/a	1	n/a	n/a	n/a	n/a	n/a	n/a	n/a	n/a
130.4524	1	80	n/a	n/a	1	n/a	n/a	n/a	n/a	n/a	n/a	n/a	n/a
130.6524	1	31	n/a	n/a	1	n/a	n/a	n/a	n/a	n/a	n/a	n/a	n/a
132.6172	1	10	1993.3	1993.3	1	0	1	0	0	0	0.7	0.7	4
134.5654	1	20	n/a	n/a	1	n/a	n/a	n/a	n/a	n/a	n/a	n/a	n/a
135.9652	1	80	n/a	n/a	1	n/a	n/a	n/a	n/a	n/a	n/a	n/a	n/a
136.0628	1	80	n/a	n/a	1	n/a	n/a	n/a	n/a	n/a	n/a	n/a	n/a
136.2702	1	31	n/a	n/a	1	n/a	n/a	n/a	n/a	n/a	n/a	n/a	n/a
138.2344	1	10	2242.8	2242.8	1	0	1	0	0	0	0.9	0.9	5
140.426	1	20	n/a	n/a	1	n/a	n/a	n/a	n/a	n/a	n/a	n/a	n/a
142.2324	1	80	n/a	n/a	1	n/a	n/a	n/a	n/a	n/a	n/a	n/a	n/a
142.33	1	80	n/a	n/a	1	n/a	n/a	n/a	n/a	n/a	n/a	n/a	n/a
142.5356	1	30	n/a	n/a	1	n/a	n/a	n/a	n/a	n/a	n/a	n/a	n/a
144.5	1	10	1937.7	1937.7	1	0	1	0	0	0	0.8	0.8	6
146.399	1	20	n/a	n/a	1	n/a	n/a	n/a	n/a	n/a	n/a	n/a	n/a
147.873	1	80	n/a	n/a	1	n/a	n/a	n/a	n/a	n/a	n/a	n/a	n/a
147.9706	1	80	n/a	n/a	1	n/a	n/a	n/a	n/a	n/a	n/a	n/a	n/a
148.1686	1	31	n/a	n/a	1	n/a	n/a	n/a	n/a	n/a	n/a	n/a	n/a
150.1328	1	10	2058.6	2058.6	1	0	1	0	0	0	0.6	0.6	7
152.1464	1	20	n/a	n/a	1	n/a	n/a	n/a	n/a	n/a	n/a	n/a	n/a
153.2282	1	80	n/a	n/a	1	n/a	n/a	n/a	n/a	n/a	n/a	n/a	n/a
153.3252	1	80	n/a	n/a	1	n/a	n/a	n/a	n/a	n/a	n/a	n/a	n/a
153.526	1	31	n/a	n/a	1	n/a	n/a	n/a	n/a	n/a	n/a	n/a	n/a
155.4902	1	10	2462.8	2462.8	1	0	1	0	0	0	0.6	0.6	8
157.8932	1	20	n/a	n/a	1	n/a	n/a	n/a	n/a	n/a	n/a	n/a	n/a
158.9166	1	80	n/a	n/a	1	n/a	n/a	n/a	n/a	n/a	n/a	n/a	n/a
159.0142	1	80	n/a	n/a	1	n/a	n/a	n/a	n/a	n/a	n/a	n/a	n/a
159.2238	1	31	n/a	n/a	1	n/a	n/a	n/a	n/a	n/a	n/a	n/a	n/a
161.1874	1	10	1493	1493	1	0	1	0	0	0	0.7	0.7	9
162.649	1	20	n/a	n/a	1	n/a	n/a	n/a	n/a	n/a	n/a	n/a	n/a
164.1414	1	80	n/a	n/a	1	n/a	n/a	n/a	n/a	n/a	n/a	n/a	n/a
164.2388	1	80	n/a	n/a	1	n/a	n/a	n/a	n/a	n/a	n/a	n/a	n/a
164.4504	1	31	n/a	n/a	1	n/a	n/a	n/a	n/a	n/a	n/a	n/a	n/a
166.4148	1	10	3150.5	3150.5	1	0	1	0	0	0	0.2	0.2	10
169.4998	1	20	n/a	n/a	1	n/a	n/a	n/a	n/a	n/a	n/a	n/a	n/a
171.166	1	80	n/a	n/a	1	n/a	n/a	n/a	n/a	n/a	n/a	n/a	n/a
171.2636	1	80	n/a	n/a	1	n/a	n/a	n/a	n/a	n/a	n/a	n/a	n/a
171.4648	1	31	n/a	n/a	1	n/a	n/a	n/a	n/a	n/a	n/a	n/a	n/a
182.2114	1	10	1718.4	1718.4	1	0	1	0	0.8	0.41022	0.6	0.64087	11
183.899	1	20	n/a	n/a	1	n/a	n/a	n/a	n/a	n/a	n/a	n/a	n/a
185.4762	1	80	n/a	n/a	1	n/a	n/a	n/a	n/a	n/a	n/a	n/a	n/a
185.5738	1	80	n/a	n/a	1	n/a	n/a	n/a	n/a	n/a	n/a	n/a	n/a
185.782	1	31	n/a	n/a	1	n/a	n/a	n/a	n/a	n/a	n/a	n/a	n/a
187.7468	1	40	n/a	n/a	1	n/a	n/a	n/a	n/a	n/a	n/a	n/a	n/a
189.7124	1	10	1618.7	1618.7	1	0	1	0	0.8	0.8138	0.3	0.75518	12
191.3028	1	20	n/a	n/a	1	n/a	n/a	n/a	n/a	n/a	n/a	n/a	n/a
193.1536	1	80	n/a	n/a	1	n/a	n/a	n/a	n/a	n/a	n/a	n/a	n/a
193.2512	1	80	n/a	n/a	1	n/a	n/a	n/a	n/a	n/a	n/a	n/a	n/a
193.4616	1	31	n/a	n/a	1	n/a	n/a	n/a	n/a	n/a	n/a	n/a	n/a
195.426	1	40	n/a	n/a	1	n/a	n/a	n/a	n/a	n/a	n/a	n/a	n/a
197.39	1	10	2455.7	2455.7	1	0	1	0	0.4	0.58695	0.7	0.8913	13
199.7922	1	20	n/a	n/a	1	n/a	n/a	n/a	n/a	n/a	n/a	n/a	n/a
201.5462	1	80	n/a	n/a	1	n/a	n/a	n/a	n/a	n/a	n/a	n/a	n/a
201.6438	1	80	n/a	n/a	1	n/a	n/a	n/a	n/a	n/a	n/a	n/a	n/a
201.854	1	31	n/a	n/a	1	n/a	n/a	n/a	n/a	n/a	n/a	n/a	n/a
203.818	1	40	n/a	n/a	1	n/a	n/a	n/a	n/a	n/a	n/a	n/a	n/a
205.7826	1	10	2575.3	2575.3	1	0	1	0	0.4	0.74968	0.3	0.33312	14
208.3002	1	20	n/a	n/a	1	n/a	n/a	n/a	n/a	n/a	n/a	n/a	n/a
210.1828	1	80	n/a	n/a	1	n/a	n/a	n/a	n/a	n/a	n/a	n/a	n/a
210.2796	1	80	n/a	n/a	1	n/a	n/a	n/a	n/a	n/a	n/a	n/a	n/a
210.4922	1	31	n/a	n/a	1	n/a	n/a	n/a	n/a	n/a	n/a	n/a	n/a
212.456	1	40	n/a	n/a	1	n/a	n/a	n/a	n/a	n/a	n/a	n/a	n/a
214.4202	1	10	1757	1757	1	0	1	0	0.6	0.21287	0.1	0.03125	15
216.1406	1	20	n/a	n/a	1	n/a	n/a	n/a	n/a	n/a	n/a	n/a	n/a
217.889	1	80	n/a	n/a	1	n/a	n/a	n/a	n/a	n/a	n/a	n/a	n/a
217.9866	1	80	n/a	n/a	1	n/a	n/a	n/a	n/a	n/a	n/a	n/a	n/a
218.1862	1	30	n/a	n/a	1	n/a	n/a	n/a	n/a	n/a	n/a	n/a	n/a
220.1506	1	40	n/a	n/a	1	n/a	n/a	n/a	n/a	n/a	n/a	n/a	n/a
222.115	1	10	2593.3	2593.3	1	0	1	0	0.7	0.1274	0.6	0.041667	16
224.648	1	20	n/a	n/a	1	n/a	n/a	n/a	n/a	n/a	n/a	n/a	n/a
226.1722	1	80	n/a	n/a	1	n/a	n/a	n/a	n/a	n/a	n/a	n/a	n/a
226.2694	1	80	n/a	n/a	1	n/a	n/a	n/a	n/a	n/a	n/a	n/a	n/a
226.4672	1	30	n/a	n/a	1	n/a	n/a	n/a	n/a	n/a	n/a	n/a	n/a
228.4318	1	40	n/a	n/a	1	n/a	n/a	n/a	n/a	n/a	n/a	n/a	n/a
230.3958	1	10	4077.5	4077.5	1	0	1	0	0.7	0.093206	0.7	0.21748	17
234.373	1	20	n/a	n/a	1	n/a	n/a	n/a	n/a	n/a	n/a	n/a	n/a
235.7756	1	80	n/a	n/a	1	n/a	n/a	n/a	n/a	n/a	n/a	n/a	n/a
235.8728	1	80	n/a	n/a	1	n/a	n/a	n/a	n/a	n/a	n/a	n/a	n/a
236.0772	1	30	n/a	n/a	1	n/a	n/a	n/a	n/a	n/a	n/a	n/a	n/a
238.041	1	40	n/a	n/a	1	n/a	n/a	n/a	n/a	n/a	n/a	n/a	n/a
240.0048	1	10	4291.2	4291.2	1	0	1	0	0.5	0.057168	0.5	0.057168	18
244.194	1	20	n/a	n/a	1	n/a	n/a	n/a	n/a	n/a	n/a	n/a	n/a
245.5576	1	80	n/a	n/a	1	n/a	n/a	n/a	n/a	n/a	n/a	n/a	n/a
245.6548	1	80	n/a	n/a	1	n/a	n/a	n/a	n/a	n/a	n/a	n/a	n/a
245.8662	1	31	n/a	n/a	1	n/a	n/a	n/a	n/a	n/a	n/a	n/a	n/a
247.8306	1	40	n/a	n/a	1	n/a	n/a	n/a	n/a	n/a	n/a	n/a	n/a
249.7944	1	10	3985.6	3985.6	1	0	1	0	0.5	0.5974	0.4	0.3974	19
253.6902	1	20	n/a	n/a	1	n/a	n/a	n/a	n/a	n/a	n/a	n/a	n/a
254.9524	1	80	n/a	n/a	1	n/a	n/a	n/a	n/a	n/a	n/a	n/a	n/a
255.0498	1	80	n/a	n/a	1	n/a	n/a	n/a	n/a	n/a	n/a	n/a	n/a
255.2488	1	30	n/a	n/a	1	n/a	n/a	n/a	n/a	n/a	n/a	n/a	n/a
257.2126	1	40	n/a	n/a	1	n/a	n/a	n/a	n/a	n/a	n/a	n/a	n/a
259.1768	1	10	4736.6	4736.6	1	0	1	0	0.6	0.3886	0.7	0.83289	20
263.805	1	20	n/a	n/a	1	n/a	n/a	n/a	n/a	n/a	n/a	n/a	n/a
265.3426	1	80	n/a	n/a	1	n/a	n/a	n/a	n/a	n/a	n/a	n/a	n/a
265.4398	1	80	n/a	n/a	1	n/a	n/a	n/a	n/a	n/a	n/a	n/a	n/a
265.6396	1	31	n/a	n/a	1	n/a	n/a	n/a	n/a	n/a	n/a	n/a	n/a
267.604	1	40	n/a	n/a	1	n/a	n/a	n/a	n/a	n/a	n/a	n/a	n/a
278.3502	1	10	2510	2510	1	0	1	0	0	0	0.8	0.8	21
280.8026	1	20	n/a	n/a	1	n/a	n/a	n/a	n/a	n/a	n/a	n/a	n/a
282.5958	1	80	n/a	n/a	1	n/a	n/a	n/a	n/a	n/a	n/a	n/a	n/a
282.6928	1	80	n/a	n/a	1	n/a	n/a	n/a	n/a	n/a	n/a	n/a	n/a
282.8978	1	31	n/a	n/a	1	n/a	n/a	n/a	n/a	n/a	n/a	n/a	n/a
284.8616	1	10	1411	1411	1	0	1	0	0	0	0.4	0.4	22
286.2414	1	20	n/a	n/a	1	n/a	n/a	n/a	n/a	n/a	n/a	n/a	n/a
287.9876	1	80	n/a	n/a	1	n/a	n/a	n/a	n/a	n/a	n/a	n/a	n/a
288.0848	1	80	n/a	n/a	1	n/a	n/a	n/a	n/a	n/a	n/a	n/a	n/a
288.287	1	30	n/a	n/a	1	n/a	n/a	n/a	n/a	n/a	n/a	n/a	n/a
290.2506	1	10	1573.9	1573.9	1	0	1	0	0	0	0.6	0.6	23
291.7924	1	20	n/a	n/a	1	n/a	n/a	n/a	n/a	n/a	n/a	n/a	n/a
293.1436	1	80	n/a	n/a	1	n/a	n/a	n/a	n/a	n/a	n/a	n/a	n/a
293.241	1	80	n/a	n/a	1	n/a	n/a	n/a	n/a	n/a	n/a	n/a	n/a
293.4486	1	31	n/a	n/a	1	n/a	n/a	n/a	n/a	n/a	n/a	n/a	n/a
295.4124	1	10	2706	2706	1	0	1	0	0	0	0.7	0.7	24
298.0586	1	20	n/a	n/a	1	n/a	n/a	n/a	n/a	n/a	n/a	n/a	n/a
299.9758	1	80	n/a	n/a	1	n/a	n/a	n/a	n/a	n/a	n/a	n/a	n/a
300.0728	1	80	n/a	n/a	1	n/a	n/a	n/a	n/a	n/a	n/a	n/a	n/a
300.2838	1	31	n/a	n/a	1	n/a	n/a	n/a	n/a	n/a	n/a	n/a	n/a
302.2484	1	10	1289.6	1289.6	1	0	1	0	0	0	0.3	0.3	25
303.5142	1	20	n/a	n/a	1	n/a	n/a	n/a	n/a	n/a	n/a	n/a	n/a
304.8556	1	80	n/a	n/a	1	n/a	n/a	n/a	n/a	n/a	n/a	n/a	n/a
304.9528	1	80	n/a	n/a	1	n/a	n/a	n/a	n/a	n/a	n/a	n/a	n/a
305.1536	1	31	n/a	n/a	1	n/a	n/a	n/a	n/a	n/a	n/a	n/a	n/a
307.118	1	10	1201.8	1201.8	1	0	1	0	0	0	0.3	0.3	26
308.3026	1	20	n/a	n/a	1	n/a	n/a	n/a	n/a	n/a	n/a	n/a	n/a
309.5094	1	80	n/a	n/a	1	n/a	n/a	n/a	n/a	n/a	n/a	n/a	n/a
309.6068	1	80	n/a	n/a	1	n/a	n/a	n/a	n/a	n/a	n/a	n/a	n/a
309.8118	1	30	n/a	n/a	1	n/a	n/a	n/a	n/a	n/a	n/a	n/a	n/a
311.7762	1	10	1586.6	1586.6	1	0	1	0	0	0	0.6	0.6	27
313.3346	1	20	n/a	n/a	1	n/a	n/a	n/a	n/a	n/a	n/a	n/a	n/a
315.0976	1	80	n/a	n/a	1	n/a	n/a	n/a	n/a	n/a	n/a	n/a	n/a
315.1948	1	80	n/a	n/a	1	n/a	n/a	n/a	n/a	n/a	n/a	n/a	n/a
315.398	1	30	n/a	n/a	1	n/a	n/a	n/a	n/a	n/a	n/a	n/a	n/a
317.3622	1	10	2221.5	2221.5	1	0	1	0	0	0	0.3	0.3	28
319.5376	1	20	n/a	n/a	1	n/a	n/a	n/a	n/a	n/a	n/a	n/a	n/a
321.3202	1	80	n/a	n/a	1	n/a	n/a	n/a	n/a	n/a	n/a	n/a	n/a
321.4178	1	80	n/a	n/a	1	n/a	n/a	n/a	n/a	n/a	n/a	n/a	n/a
321.6154	1	31	n/a	n/a	1	n/a	n/a	n/a	n/a	n/a	n/a	n/a	n/a
323.5794	1	10	1886.4	1886.4	1	0	1	0	0	0	0.9	0.9	29
325.4298	1	20	n/a	n/a	1	n/a	n/a	n/a	n/a	n/a	n/a	n/a	n/a
326.435	1	80	n/a	n/a	1	n/a	n/a	n/a	n/a	n/a	n/a	n/a	n/a
326.5326	1	80	n/a	n/a	1	n/a	n/a	n/a	n/a	n/a	n/a	n/a	n/a
326.7446	1	31	n/a	n/a	1	n/a	n/a	n/a	n/a	n/a	n/a	n/a	n/a
328.7082	1	10	1788	1788	1	0	1	0	0	0	0.4	0.4	30
330.4618	1	20	n/a	n/a	1	n/a	n/a	n/a	n/a	n/a	n/a	n/a	n/a
332.3536	1	80	n/a	n/a	1	n/a	n/a	n/a	n/a	n/a	n/a	n/a	n/a
332.4512	1	80	n/a	n/a	1	n/a	n/a	n/a	n/a	n/a	n/a	n/a	n/a
332.653	1	30	n/a	n/a	1	n/a	n/a	n/a	n/a	n/a	n/a	n/a	n/a
343.4004	1	10	2609.2	2609.2	1	0	1	0	0.4	0.55777	0.5	0.53851	31
345.9486	1	20	n/a	n/a	1	n/a	n/a	n/a	n/a	n/a	n/a	n/a	n/a
347.6968	1	80	n/a	n/a	1	n/a	n/a	n/a	n/a	n/a	n/a	n/a	n/a
347.7944	1	80	n/a	n/a	1	n/a	n/a	n/a	n/a	n/a	n/a	n/a	n/a
347.9942	1	30	n/a	n/a	1	n/a	n/a	n/a	n/a	n/a	n/a	n/a	n/a
349.9584	1	40	n/a	n/a	1	n/a	n/a	n/a	n/a	n/a	n/a	n/a	n/a
351.9228	1	10	2275.5	2275.5	1	0	1	0	0.4	0.62399	0.4	0.41599	32
354.1476	1	20	n/a	n/a	1	n/a	n/a	n/a	n/a	n/a	n/a	n/a	n/a
355.228	1	80	n/a	n/a	1	n/a	n/a	n/a	n/a	n/a	n/a	n/a	n/a
355.3252	1	80	n/a	n/a	1	n/a	n/a	n/a	n/a	n/a	n/a	n/a	n/a
355.528	1	30	n/a	n/a	1	n/a	n/a	n/a	n/a	n/a	n/a	n/a	n/a
357.4922	1	40	n/a	n/a	1	n/a	n/a	n/a	n/a	n/a	n/a	n/a	n/a
359.4562	1	10	2398.4	2398.4	1	0	1	0	0.7	0.48451	0.6	0.7972	33
361.8098	1	20	n/a	n/a	1	n/a	n/a	n/a	n/a	n/a	n/a	n/a	n/a
363.0108	1	80	n/a	n/a	1	n/a	n/a	n/a	n/a	n/a	n/a	n/a	n/a
363.1084	1	80	n/a	n/a	1	n/a	n/a	n/a	n/a	n/a	n/a	n/a	n/a
363.3192	1	30	n/a	n/a	1	n/a	n/a	n/a	n/a	n/a	n/a	n/a	n/a
365.2838	1	40	n/a	n/a	1	n/a	n/a	n/a	n/a	n/a	n/a	n/a	n/a
367.2484	1	10	2366.7	2366.7	1	0	1	0	0.7	0.69711	0.4	0.62658	34
369.5696	1	20	n/a	n/a	1	n/a	n/a	n/a	n/a	n/a	n/a	n/a	n/a
370.6266	1	80	n/a	n/a	1	n/a	n/a	n/a	n/a	n/a	n/a	n/a	n/a
370.7244	1	80	n/a	n/a	1	n/a	n/a	n/a	n/a	n/a	n/a	n/a	n/a
370.934	1	31	n/a	n/a	1	n/a	n/a	n/a	n/a	n/a	n/a	n/a	n/a
372.8986	1	40	n/a	n/a	1	n/a	n/a	n/a	n/a	n/a	n/a	n/a	n/a
374.8626	1	10	3558.3	3558.3	1	0	1	0	0.5	0.056556	0.5	0.056556	35
378.336	1	20	n/a	n/a	1	n/a	n/a	n/a	n/a	n/a	n/a	n/a	n/a
379.6948	1	80	n/a	n/a	1	n/a	n/a	n/a	n/a	n/a	n/a	n/a	n/a
379.792	1	80	n/a	n/a	1	n/a	n/a	n/a	n/a	n/a	n/a	n/a	n/a
379.9922	1	31	n/a	n/a	1	n/a	n/a	n/a	n/a	n/a	n/a	n/a	n/a
381.9558	1	40	n/a	n/a	1	n/a	n/a	n/a	n/a	n/a	n/a	n/a	n/a
383.9198	1	10	3986.6	3986.6	1	0	1	0	0.4	0.86961	0.2	0.24641	36
387.816	1	20	n/a	n/a	1	n/a	n/a	n/a	n/a	n/a	n/a	n/a	n/a
389.537	1	80	n/a	n/a	1	n/a	n/a	n/a	n/a	n/a	n/a	n/a	n/a
389.6346	1	80	n/a	n/a	1	n/a	n/a	n/a	n/a	n/a	n/a	n/a	n/a
389.8464	1	31	n/a	n/a	1	n/a	n/a	n/a	n/a	n/a	n/a	n/a	n/a
391.8112	1	40	n/a	n/a	1	n/a	n/a	n/a	n/a	n/a	n/a	n/a	n/a
393.7758	1	10	3374.4	3374.4	1	0	1	0	0.8	0.83053	0.3	0.82213	37
397.07	1	20	n/a	n/a	1	n/a	n/a	n/a	n/a	n/a	n/a	n/a	n/a
398.0756	1	80	n/a	n/a	1	n/a	n/a	n/a	n/a	n/a	n/a	n/a	n/a
398.173	1	80	n/a	n/a	1	n/a	n/a	n/a	n/a	n/a	n/a	n/a	n/a
398.3852	1	30	n/a	n/a	1	n/a	n/a	n/a	n/a	n/a	n/a	n/a	n/a
400.349	1	40	n/a	n/a	1	n/a	n/a	n/a	n/a	n/a	n/a	n/a	n/a
402.3132	1	10	2544	2544	1	0	1	0	0.5	0.34086	0.8	0.94086	38
404.7966	1	20	n/a	n/a	1	n/a	n/a	n/a	n/a	n/a	n/a	n/a	n/a
406.0486	1	80	n/a	n/a	1	n/a	n/a	n/a	n/a	n/a	n/a	n/a	n/a
406.1462	1	80	n/a	n/a	1	n/a	n/a	n/a	n/a	n/a	n/a	n/a	n/a
406.3556	1	30	n/a	n/a	1	n/a	n/a	n/a	n/a	n/a	n/a	n/a	n/a
408.3218	1	40	n/a	n/a	1	n/a	n/a	n/a	n/a	n/a	n/a	n/a	n/a
410.2858	1	10	3097	3097	1	0	1	0	0.7	0.62834	0.3	0.13279	39
413.3048	1	20	n/a	n/a	1	n/a	n/a	n/a	n/a	n/a	n/a	n/a	n/a
414.8664	1	80	n/a	n/a	1	n/a	n/a	n/a	n/a	n/a	n/a	n/a	n/a
414.9638	1	80	n/a	n/a	1	n/a	n/a	n/a	n/a	n/a	n/a	n/a	n/a
415.1714	1	30	n/a	n/a	1	n/a	n/a	n/a	n/a	n/a	n/a	n/a	n/a
417.1356	1	40	n/a	n/a	1	n/a	n/a	n/a	n/a	n/a	n/a	n/a	n/a
419.0998	1	10	2399.3	2399.3	1	0	1	0	0.4	0.34312	0.7	0.72875	40
421.4532	1	20	n/a	n/a	1	n/a	n/a	n/a	n/a	n/a	n/a	n/a	n/a
422.8186	1	80	n/a	n/a	1	n/a	n/a	n/a	n/a	n/a	n/a	n/a	n/a
422.9158	1	80	n/a	n/a	1	n/a	n/a	n/a	n/a	n/a	n/a	n/a	n/a
423.126	1	30	n/a	n/a	1	n/a	n/a	n/a	n/a	n/a	n/a	n/a	n/a
425.0914	1	40	n/a	n/a	1	n/a	n/a	n/a	n/a	n/a	n/a	n/a	n/a
490.4328	1	10	1568.6	1568.6	1	1	0	0	0	0	0.1	0.1	1
491.9752	1	20	n/a	n/a	1	n/a	n/a	n/a	n/a	n/a	n/a	n/a	n/a
493.2948	1	80	n/a	n/a	1	n/a	n/a	n/a	n/a	n/a	n/a	n/a	n/a
493.392	1	80	n/a	n/a	1	n/a	n/a	n/a	n/a	n/a	n/a	n/a	n/a
493.5986	1	30	n/a	n/a	1	n/a	n/a	n/a	n/a	n/a	n/a	n/a	n/a
495.5624	1	10	5870.1	5870.1	1	1	0	0	0	0	0.2	0.2	2
501.2932	1	20	n/a	n/a	1	n/a	n/a	n/a	n/a	n/a	n/a	n/a	n/a
502.9688	1	80	n/a	n/a	1	n/a	n/a	n/a	n/a	n/a	n/a	n/a	n/a
503.0664	1	80	n/a	n/a	1	n/a	n/a	n/a	n/a	n/a	n/a	n/a	n/a
503.2736	1	30	n/a	n/a	1	n/a	n/a	n/a	n/a	n/a	n/a	n/a	n/a
505.2378	1	10	3745.2	3745.2	1	1	0	0	0	0	0.1	0.1	3
508.89	1	20	n/a	n/a	1	n/a	n/a	n/a	n/a	n/a	n/a	n/a	n/a
509.9178	1	80	n/a	n/a	1	n/a	n/a	n/a	n/a	n/a	n/a	n/a	n/a
510.0148	1	80	n/a	n/a	1	n/a	n/a	n/a	n/a	n/a	n/a	n/a	n/a
510.221	1	30	n/a	n/a	1	n/a	n/a	n/a	n/a	n/a	n/a	n/a	n/a
512.1854	1	10	1540.2	1540.2	1	1	0	0	0	0	0.6	0.6	4
513.6948	1	20	n/a	n/a	1	n/a	n/a	n/a	n/a	n/a	n/a	n/a	n/a
515.345	1	80	n/a	n/a	1	n/a	n/a	n/a	n/a	n/a	n/a	n/a	n/a
515.4418	1	80	n/a	n/a	1	n/a	n/a	n/a	n/a	n/a	n/a	n/a	n/a
515.644	1	31	n/a	n/a	1	n/a	n/a	n/a	n/a	n/a	n/a	n/a	n/a
517.609	1	10	1813.7	1813.7	1	1	0	0	0	0	0.6	0.6	5
519.3788	1	20	n/a	n/a	1	n/a	n/a	n/a	n/a	n/a	n/a	n/a	n/a
520.3724	1	80	n/a	n/a	1	n/a	n/a	n/a	n/a	n/a	n/a	n/a	n/a
520.4698	1	80	n/a	n/a	1	n/a	n/a	n/a	n/a	n/a	n/a	n/a	n/a
520.6774	1	31	n/a	n/a	1	n/a	n/a	n/a	n/a	n/a	n/a	n/a	n/a
522.6414	1	10	1431.2	1431.2	1	1	0	0	0	0	0.5	0.5	6
524.0378	1	20	n/a	n/a	1	n/a	n/a	n/a	n/a	n/a	n/a	n/a	n/a
525.109	1	80	n/a	n/a	1	n/a	n/a	n/a	n/a	n/a	n/a	n/a	n/a
525.2066	1	80	n/a	n/a	1	n/a	n/a	n/a	n/a	n/a	n/a	n/a	n/a
525.4172	1	30	n/a	n/a	1	n/a	n/a	n/a	n/a	n/a	n/a	n/a	n/a
527.3814	1	10	3316.7	3316.7	1	1	0	0	0	0	0.1	0.1	7
530.6276	1	20	n/a	n/a	1	n/a	n/a	n/a	n/a	n/a	n/a	n/a	n/a
532.3594	1	80	n/a	n/a	1	n/a	n/a	n/a	n/a	n/a	n/a	n/a	n/a
532.4564	1	80	n/a	n/a	1	n/a	n/a	n/a	n/a	n/a	n/a	n/a	n/a
532.6564	1	30	n/a	n/a	1	n/a	n/a	n/a	n/a	n/a	n/a	n/a	n/a
534.6218	1	10	1979.6	1979.6	1	1	0	0	0	0	0.1	0.1	8
536.5702	1	20	n/a	n/a	1	n/a	n/a	n/a	n/a	n/a	n/a	n/a	n/a
538.2546	1	80	n/a	n/a	1	n/a	n/a	n/a	n/a	n/a	n/a	n/a	n/a
538.3522	1	80	n/a	n/a	1	n/a	n/a	n/a	n/a	n/a	n/a	n/a	n/a
538.5506	1	31	n/a	n/a	1	n/a	n/a	n/a	n/a	n/a	n/a	n/a	n/a
540.5148	1	10	1337.9	1337.9	1	1	0	0	0	0	0.5	0.5	9
541.8298	1	20	n/a	n/a	1	n/a	n/a	n/a	n/a	n/a	n/a	n/a	n/a
543.027	1	80	n/a	n/a	1	n/a	n/a	n/a	n/a	n/a	n/a	n/a	n/a
543.1238	1	80	n/a	n/a	1	n/a	n/a	n/a	n/a	n/a	n/a	n/a	n/a
543.3228	1	30	n/a	n/a	1	n/a	n/a	n/a	n/a	n/a	n/a	n/a	n/a
545.2866	1	10	886	886	1	1	0	0	0	0	0.6	0.6	10
546.1634	1	20	n/a	n/a	1	n/a	n/a	n/a	n/a	n/a	n/a	n/a	n/a
547.8272	1	80	n/a	n/a	1	n/a	n/a	n/a	n/a	n/a	n/a	n/a	n/a
547.9248	1	80	n/a	n/a	1	n/a	n/a	n/a	n/a	n/a	n/a	n/a	n/a
548.1274	1	30	n/a	n/a	1	n/a	n/a	n/a	n/a	n/a	n/a	n/a	n/a
558.874	1	10	3976.5	3976.5	1	1	0	0	0.7	0.33384	0.6	0.44562	11
562.7534	1	20	n/a	n/a	1	n/a	n/a	n/a	n/a	n/a	n/a	n/a	n/a
564.207	1	80	n/a	n/a	1	n/a	n/a	n/a	n/a	n/a	n/a	n/a	n/a
564.3046	1	80	n/a	n/a	1	n/a	n/a	n/a	n/a	n/a	n/a	n/a	n/a
564.5066	1	30	n/a	n/a	1	n/a	n/a	n/a	n/a	n/a	n/a	n/a	n/a
566.4708	1	40	n/a	n/a	1	n/a	n/a	n/a	n/a	n/a	n/a	n/a	n/a
568.4352	1	10	1120.2	1120.2	1	1	0	0	0.4	0.55636	0.6	0.70424	12
569.5386	1	20	n/a	n/a	1	n/a	n/a	n/a	n/a	n/a	n/a	n/a	n/a
571.2418	1	80	n/a	n/a	1	n/a	n/a	n/a	n/a	n/a	n/a	n/a	n/a
571.3396	1	80	n/a	n/a	1	n/a	n/a	n/a	n/a	n/a	n/a	n/a	n/a
571.5374	1	31	n/a	n/a	1	n/a	n/a	n/a	n/a	n/a	n/a	n/a	n/a
573.5022	1	40	n/a	n/a	1	n/a	n/a	n/a	n/a	n/a	n/a	n/a	n/a
575.4666	1	10	1215.8	1215.8	1	1	0	0	0.4	0.0062941	0.6	0.33753	13
576.6674	1	20	n/a	n/a	1	n/a	n/a	n/a	n/a	n/a	n/a	n/a	n/a
578.1916	1	80	n/a	n/a	1	n/a	n/a	n/a	n/a	n/a	n/a	n/a	n/a
578.2892	1	80	n/a	n/a	1	n/a	n/a	n/a	n/a	n/a	n/a	n/a	n/a
578.4858	1	30	n/a	n/a	1	n/a	n/a	n/a	n/a	n/a	n/a	n/a	n/a
580.4498	1	40	n/a	n/a	1	n/a	n/a	n/a	n/a	n/a	n/a	n/a	n/a
582.4136	1	10	2130.7	2130.7	1	1	0	0	0.7	0.83452	0.2	0.28054	14
584.4916	1	20	n/a	n/a	1	n/a	n/a	n/a	n/a	n/a	n/a	n/a	n/a
585.7052	1	80	n/a	n/a	1	n/a	n/a	n/a	n/a	n/a	n/a	n/a	n/a
585.8028	1	80	n/a	n/a	1	n/a	n/a	n/a	n/a	n/a	n/a	n/a	n/a
586.0006	1	30	n/a	n/a	1	n/a	n/a	n/a	n/a	n/a	n/a	n/a	n/a
587.9654	1	40	n/a	n/a	1	n/a	n/a	n/a	n/a	n/a	n/a	n/a	n/a
589.9306	1	10	2574.4	2574.4	1	1	0	0	0.8	0.063509	0.8	0.25403	15
592.4482	1	20	n/a	n/a	1	n/a	n/a	n/a	n/a	n/a	n/a	n/a	n/a
593.936	1	80	n/a	n/a	1	n/a	n/a	n/a	n/a	n/a	n/a	n/a	n/a
594.0332	1	80	n/a	n/a	1	n/a	n/a	n/a	n/a	n/a	n/a	n/a	n/a
594.2334	1	31	n/a	n/a	1	n/a	n/a	n/a	n/a	n/a	n/a	n/a	n/a
596.1972	1	40	n/a	n/a	1	n/a	n/a	n/a	n/a	n/a	n/a	n/a	n/a
598.1616	1	10	3100.7	3100.7	1	1	0	0	0.8	0.84731	0.2	0.38925	16
601.1972	1	20	n/a	n/a	1	n/a	n/a	n/a	n/a	n/a	n/a	n/a	n/a
602.8468	1	80	n/a	n/a	1	n/a	n/a	n/a	n/a	n/a	n/a	n/a	n/a
602.9444	1	80	n/a	n/a	1	n/a	n/a	n/a	n/a	n/a	n/a	n/a	n/a
603.1448	1	31	n/a	n/a	1	n/a	n/a	n/a	n/a	n/a	n/a	n/a	n/a
605.109	1	40	n/a	n/a	1	n/a	n/a	n/a	n/a	n/a	n/a	n/a	n/a
607.0736	1	10	3966.9	3966.9	1	1	0	0	0.5	0.51235	0.4	0.31235	17
610.9534	1	20	n/a	n/a	1	n/a	n/a	n/a	n/a	n/a	n/a	n/a	n/a
612.4706	1	80	n/a	n/a	1	n/a	n/a	n/a	n/a	n/a	n/a	n/a	n/a
612.568	1	80	n/a	n/a	1	n/a	n/a	n/a	n/a	n/a	n/a	n/a	n/a
612.7714	1	30	n/a	n/a	1	n/a	n/a	n/a	n/a	n/a	n/a	n/a	n/a
614.7352	1	40	n/a	n/a	1	n/a	n/a	n/a	n/a	n/a	n/a	n/a	n/a
616.6994	1	10	3540	3540	1	1	0	0	0.7	0.74603	0.3	0.40739	18
620.1562	1	20	n/a	n/a	1	n/a	n/a	n/a	n/a	n/a	n/a	n/a	n/a
621.2464	1	80	n/a	n/a	1	n/a	n/a	n/a	n/a	n/a	n/a	n/a	n/a
621.344	1	80	n/a	n/a	1	n/a	n/a	n/a	n/a	n/a	n/a	n/a	n/a
621.5522	1	30	n/a	n/a	1	n/a	n/a	n/a	n/a	n/a	n/a	n/a	n/a
623.517	1	40	n/a	n/a	1	n/a	n/a	n/a	n/a	n/a	n/a	n/a	n/a
625.4826	1	10	2363.7	2363.7	1	1	0	0	0.6	0.89598	0.1	0.09397	19
627.7888	1	20	n/a	n/a	1	n/a	n/a	n/a	n/a	n/a	n/a	n/a	n/a
628.8196	1	80	n/a	n/a	1	n/a	n/a	n/a	n/a	n/a	n/a	n/a	n/a
628.9172	1	80	n/a	n/a	1	n/a	n/a	n/a	n/a	n/a	n/a	n/a	n/a
629.1204	1	30	n/a	n/a	1	n/a	n/a	n/a	n/a	n/a	n/a	n/a	n/a
631.0848	1	40	n/a	n/a	1	n/a	n/a	n/a	n/a	n/a	n/a	n/a	n/a
633.0488	1	10	1749.3	1749.3	1	1	0	0	0.7	0.73048	0.3	0.37113	20
634.7698	1	20	n/a	n/a	1	n/a	n/a	n/a	n/a	n/a	n/a	n/a	n/a
636.6552	1	80	n/a	n/a	1	n/a	n/a	n/a	n/a	n/a	n/a	n/a	n/a
636.7524	1	80	n/a	n/a	1	n/a	n/a	n/a	n/a	n/a	n/a	n/a	n/a
636.9608	1	30	n/a	n/a	1	n/a	n/a	n/a	n/a	n/a	n/a	n/a	n/a
638.9246	1	40	n/a	n/a	1	n/a	n/a	n/a	n/a	n/a	n/a	n/a	n/a
649.6736	1	10	2043.3	2043.3	1	1	0	0	0	0	0.1	0.1	21
651.67	1	20	n/a	n/a	1	n/a	n/a	n/a	n/a	n/a	n/a	n/a	n/a
653.1322	1	80	n/a	n/a	1	n/a	n/a	n/a	n/a	n/a	n/a	n/a	n/a
653.2292	1	80	n/a	n/a	1	n/a	n/a	n/a	n/a	n/a	n/a	n/a	n/a
653.4392	1	31	n/a	n/a	1	n/a	n/a	n/a	n/a	n/a	n/a	n/a	n/a
655.403	1	10	1920.1	1920.1	1	1	0	0	0	0	0.7	0.7	22
657.2858	1	20	n/a	n/a	1	n/a	n/a	n/a	n/a	n/a	n/a	n/a	n/a
658.4138	1	80	n/a	n/a	1	n/a	n/a	n/a	n/a	n/a	n/a	n/a	n/a
658.5114	1	80	n/a	n/a	1	n/a	n/a	n/a	n/a	n/a	n/a	n/a	n/a
658.7146	1	31	n/a	n/a	1	n/a	n/a	n/a	n/a	n/a	n/a	n/a	n/a
660.679	1	10	1047.7	1047.7	1	1	0	0	0	0	0.1	0.1	23
661.7016	1	20	n/a	n/a	1	n/a	n/a	n/a	n/a	n/a	n/a	n/a	n/a
662.7956	1	80	n/a	n/a	1	n/a	n/a	n/a	n/a	n/a	n/a	n/a	n/a
662.8932	1	80	n/a	n/a	1	n/a	n/a	n/a	n/a	n/a	n/a	n/a	n/a
663.0976	1	31	n/a	n/a	1	n/a	n/a	n/a	n/a	n/a	n/a	n/a	n/a
665.062	1	10	1443.8	1443.8	1	1	0	0	0	0	0.2	0.2	24
666.4742	1	20	n/a	n/a	1	n/a	n/a	n/a	n/a	n/a	n/a	n/a	n/a
667.7406	1	80	n/a	n/a	1	n/a	n/a	n/a	n/a	n/a	n/a	n/a	n/a
667.8376	1	80	n/a	n/a	1	n/a	n/a	n/a	n/a	n/a	n/a	n/a	n/a
668.0486	1	30	n/a	n/a	1	n/a	n/a	n/a	n/a	n/a	n/a	n/a	n/a
670.0126	1	10	1240.6	1240.6	1	1	0	0	0	0	0.8	0.8	25
671.23	1	20	n/a	n/a	1	n/a	n/a	n/a	n/a	n/a	n/a	n/a	n/a
672.5048	1	80	n/a	n/a	1	n/a	n/a	n/a	n/a	n/a	n/a	n/a	n/a
672.6024	1	80	n/a	n/a	1	n/a	n/a	n/a	n/a	n/a	n/a	n/a	n/a
672.8044	1	30	n/a	n/a	1	n/a	n/a	n/a	n/a	n/a	n/a	n/a	n/a
674.7684	1	10	2453.6	2453.6	1	1	0	0	0	0	0.1	0.1	26
677.1708	1	20	n/a	n/a	1	n/a	n/a	n/a	n/a	n/a	n/a	n/a	n/a
678.261	1	80	n/a	n/a	1	n/a	n/a	n/a	n/a	n/a	n/a	n/a	n/a
678.3586	1	80	n/a	n/a	1	n/a	n/a	n/a	n/a	n/a	n/a	n/a	n/a
678.567	1	31	n/a	n/a	1	n/a	n/a	n/a	n/a	n/a	n/a	n/a	n/a
680.5318	1	10	1913.1	1913.1	1	1	0	0	0	0	0.5	0.5	27
682.4004	1	20	n/a	n/a	1	n/a	n/a	n/a	n/a	n/a	n/a	n/a	n/a
683.8552	1	80	n/a	n/a	1	n/a	n/a	n/a	n/a	n/a	n/a	n/a	n/a
683.9524	1	80	n/a	n/a	1	n/a	n/a	n/a	n/a	n/a	n/a	n/a	n/a
684.155	1	31	n/a	n/a	1	n/a	n/a	n/a	n/a	n/a	n/a	n/a	n/a
686.1188	1	10	2611.9	2611.9	1	1	0	0	0	0	0.1	0.1	28
688.6668	1	20	n/a	n/a	1	n/a	n/a	n/a	n/a	n/a	n/a	n/a	n/a
690.4384	1	80	n/a	n/a	1	n/a	n/a	n/a	n/a	n/a	n/a	n/a	n/a
690.536	1	80	n/a	n/a	1	n/a	n/a	n/a	n/a	n/a	n/a	n/a	n/a
690.7448	1	31	n/a	n/a	1	n/a	n/a	n/a	n/a	n/a	n/a	n/a	n/a
692.7086	1	10	2165.5	2165.5	1	1	0	0	0	0	0.7	0.7	29
694.8358	1	20	n/a	n/a	1	n/a	n/a	n/a	n/a	n/a	n/a	n/a	n/a
696.726	1	80	n/a	n/a	1	n/a	n/a	n/a	n/a	n/a	n/a	n/a	n/a
696.8234	1	80	n/a	n/a	1	n/a	n/a	n/a	n/a	n/a	n/a	n/a	n/a
697.027	1	30	n/a	n/a	1	n/a	n/a	n/a	n/a	n/a	n/a	n/a	n/a
698.9922	1	10	2931.7	2931.7	1	1	0	0	0	0	0.5	0.5	30
701.8666	1	20	n/a	n/a	1	n/a	n/a	n/a	n/a	n/a	n/a	n/a	n/a
703.014	1	80	n/a	n/a	1	n/a	n/a	n/a	n/a	n/a	n/a	n/a	n/a
703.1112	1	80	n/a	n/a	1	n/a	n/a	n/a	n/a	n/a	n/a	n/a	n/a
703.3114	1	31	n/a	n/a	1	n/a	n/a	n/a	n/a	n/a	n/a	n/a	n/a
714.0568	1	10	1401.7	1401.7	1	1	0	0	0.6	0.83395	0.1	0.03125	31
715.437	1	20	n/a	n/a	1	n/a	n/a	n/a	n/a	n/a	n/a	n/a	n/a
716.5726	1	80	n/a	n/a	1	n/a	n/a	n/a	n/a	n/a	n/a	n/a	n/a
716.6696	1	80	n/a	n/a	1	n/a	n/a	n/a	n/a	n/a	n/a	n/a	n/a
716.8816	1	31	n/a	n/a	1	n/a	n/a	n/a	n/a	n/a	n/a	n/a	n/a
718.8466	1	40	n/a	n/a	1	n/a	n/a	n/a	n/a	n/a	n/a	n/a	n/a
720.8108	1	10	2564.6	2564.6	1	1	0	0	0.6	0.06923	0.1	0.03125	32
723.3268	1	20	n/a	n/a	1	n/a	n/a	n/a	n/a	n/a	n/a	n/a	n/a
724.6972	1	80	n/a	n/a	1	n/a	n/a	n/a	n/a	n/a	n/a	n/a	n/a
724.7944	1	80	n/a	n/a	1	n/a	n/a	n/a	n/a	n/a	n/a	n/a	n/a
724.999	1	31	n/a	n/a	1	n/a	n/a	n/a	n/a	n/a	n/a	n/a	n/a
726.9628	1	40	n/a	n/a	1	n/a	n/a	n/a	n/a	n/a	n/a	n/a	n/a
728.9268	1	10	1959.6	1959.6	1	1	0	0	0.8	0.40977	0.2	0.0625	33
730.842	1	20	n/a	n/a	1	n/a	n/a	n/a	n/a	n/a	n/a	n/a	n/a
732.057	1	80	n/a	n/a	1	n/a	n/a	n/a	n/a	n/a	n/a	n/a	n/a
732.1544	1	80	n/a	n/a	1	n/a	n/a	n/a	n/a	n/a	n/a	n/a	n/a
732.3522	1	31	n/a	n/a	1	n/a	n/a	n/a	n/a	n/a	n/a	n/a	n/a
734.3174	1	40	n/a	n/a	1	n/a	n/a	n/a	n/a	n/a	n/a	n/a	n/a
736.2822	1	10	2873.8	2873.8	1	1	0	0	0.5	0.84037	0.2	0.24037	34
739.0916	1	20	n/a	n/a	1	n/a	n/a	n/a	n/a	n/a	n/a	n/a	n/a
740.9762	1	80	n/a	n/a	1	n/a	n/a	n/a	n/a	n/a	n/a	n/a	n/a
741.0734	1	80	n/a	n/a	1	n/a	n/a	n/a	n/a	n/a	n/a	n/a	n/a
741.2828	1	30	n/a	n/a	1	n/a	n/a	n/a	n/a	n/a	n/a	n/a	n/a
743.2466	1	40	n/a	n/a	1	n/a	n/a	n/a	n/a	n/a	n/a	n/a	n/a
745.211	1	10	1163.6	1163.6	1	1	0	0	0.6	0.34371	0.6	0.51556	35
746.347	1	20	n/a	n/a	1	n/a	n/a	n/a	n/a	n/a	n/a	n/a	n/a
747.3904	1	80	n/a	n/a	1	n/a	n/a	n/a	n/a	n/a	n/a	n/a	n/a
747.488	1	80	n/a	n/a	1	n/a	n/a	n/a	n/a	n/a	n/a	n/a	n/a
747.6944	1	31	n/a	n/a	1	n/a	n/a	n/a	n/a	n/a	n/a	n/a	n/a
749.658	1	40	n/a	n/a	1	n/a	n/a	n/a	n/a	n/a	n/a	n/a	n/a
751.623	1	10	2804.3	2804.3	1	1	0	0	0.7	0.46032	0.9	0.95833	36
754.367	1	20	n/a	n/a	1	n/a	n/a	n/a	n/a	n/a	n/a	n/a	n/a
755.466	1	80	n/a	n/a	1	n/a	n/a	n/a	n/a	n/a	n/a	n/a	n/a
755.5636	1	80	n/a	n/a	1	n/a	n/a	n/a	n/a	n/a	n/a	n/a	n/a
755.7634	1	31	n/a	n/a	1	n/a	n/a	n/a	n/a	n/a	n/a	n/a	n/a
757.7276	1	40	n/a	n/a	1	n/a	n/a	n/a	n/a	n/a	n/a	n/a	n/a
759.6922	1	10	2649.3	2649.3	1	1	0	0	0.5	0.54191	0.3	0.14191	37
762.289	1	20	n/a	n/a	1	n/a	n/a	n/a	n/a	n/a	n/a	n/a	n/a
763.2706	1	80	n/a	n/a	1	n/a	n/a	n/a	n/a	n/a	n/a	n/a	n/a
763.3682	1	80	n/a	n/a	1	n/a	n/a	n/a	n/a	n/a	n/a	n/a	n/a
763.5712	1	31	n/a	n/a	1	n/a	n/a	n/a	n/a	n/a	n/a	n/a	n/a
765.5352	1	40	n/a	n/a	1	n/a	n/a	n/a	n/a	n/a	n/a	n/a	n/a
767.5	1	10	2360.9	2360.9	1	1	0	0	0.7	0.41313	0.6	0.63064	38
769.8056	1	20	n/a	n/a	1	n/a	n/a	n/a	n/a	n/a	n/a	n/a	n/a
771.3584	1	80	n/a	n/a	1	n/a	n/a	n/a	n/a	n/a	n/a	n/a	n/a
771.456	1	80	n/a	n/a	1	n/a	n/a	n/a	n/a	n/a	n/a	n/a	n/a
771.6574	1	30	n/a	n/a	1	n/a	n/a	n/a	n/a	n/a	n/a	n/a	n/a
773.6228	1	40	n/a	n/a	1	n/a	n/a	n/a	n/a	n/a	n/a	n/a	n/a
775.587	1	10	781.4	781.4	1	1	0	0	0.7	0.41776	0.6	0.64143	39
776.366	1	20	n/a	n/a	1	n/a	n/a	n/a	n/a	n/a	n/a	n/a	n/a
778.1306	1	80	n/a	n/a	1	n/a	n/a	n/a	n/a	n/a	n/a	n/a	n/a
778.2282	1	80	n/a	n/a	1	n/a	n/a	n/a	n/a	n/a	n/a	n/a	n/a
778.4274	1	30	n/a	n/a	1	n/a	n/a	n/a	n/a	n/a	n/a	n/a	n/a
780.3918	1	40	n/a	n/a	1	n/a	n/a	n/a	n/a	n/a	n/a	n/a	n/a
782.3554	1	10	1207.6	1207.6	1	1	0	0	0.7	0.3418	0.5	0.13088	40
783.5406	1	20	n/a	n/a	1	n/a	n/a	n/a	n/a	n/a	n/a	n/a	n/a
785.0062	1	80	n/a	n/a	1	n/a	n/a	n/a	n/a	n/a	n/a	n/a	n/a
785.1038	1	80	n/a	n/a	1	n/a	n/a	n/a	n/a	n/a	n/a	n/a	n/a
785.3094	1	31	n/a	n/a	1	n/a	n/a	n/a	n/a	n/a	n/a	n/a	n/a
787.2742	1	40	n/a	n/a	1	n/a	n/a	n/a	n/a	n/a	n/a	n/a	n/a
866.222	1	10	1910.6	1910.6	1	1	0	0	0	0	0.8	0.8	1
868.0884	1	20	n/a	n/a	1	n/a	n/a	n/a	n/a	n/a	n/a	n/a	n/a
869.3518	1	80	n/a	n/a	1	n/a	n/a	n/a	n/a	n/a	n/a	n/a	n/a
869.4488	1	80	n/a	n/a	1	n/a	n/a	n/a	n/a	n/a	n/a	n/a	n/a
869.6462	1	31	n/a	n/a	1	n/a	n/a	n/a	n/a	n/a	n/a	n/a	n/a
871.6106	1	10	1625.6	1625.6	1	1	0	0	0	0	0.1	0.1	2
873.2014	1	20	n/a	n/a	1	n/a	n/a	n/a	n/a	n/a	n/a	n/a	n/a
875.035	1	80	n/a	n/a	1	n/a	n/a	n/a	n/a	n/a	n/a	n/a	n/a
875.1322	1	80	n/a	n/a	1	n/a	n/a	n/a	n/a	n/a	n/a	n/a	n/a
875.344	1	31	n/a	n/a	1	n/a	n/a	n/a	n/a	n/a	n/a	n/a	n/a
877.3086	1	10	1167.8	1167.8	1	1	0	0	0	0	0.2	0.2	3
878.4614	1	20	n/a	n/a	1	n/a	n/a	n/a	n/a	n/a	n/a	n/a	n/a
880.12	1	80	n/a	n/a	1	n/a	n/a	n/a	n/a	n/a	n/a	n/a	n/a
880.2172	1	80	n/a	n/a	1	n/a	n/a	n/a	n/a	n/a	n/a	n/a	n/a
880.425	1	31	n/a	n/a	1	n/a	n/a	n/a	n/a	n/a	n/a	n/a	n/a
882.3898	1	10	687.3	687.3	1	1	0	0	0	0	0.7	0.7	4
883.072	1	20	n/a	n/a	1	n/a	n/a	n/a	n/a	n/a	n/a	n/a	n/a
884.7822	1	80	n/a	n/a	1	n/a	n/a	n/a	n/a	n/a	n/a	n/a	n/a
884.8798	1	80	n/a	n/a	1	n/a	n/a	n/a	n/a	n/a	n/a	n/a	n/a
885.0844	1	31	n/a	n/a	1	n/a	n/a	n/a	n/a	n/a	n/a	n/a	n/a
887.0486	1	10	1600.2	1600.2	1	1	0	0	0	0	0.2	0.2	5
888.6232	1	20	n/a	n/a	1	n/a	n/a	n/a	n/a	n/a	n/a	n/a	n/a
890.5162	1	80	n/a	n/a	1	n/a	n/a	n/a	n/a	n/a	n/a	n/a	n/a
890.6132	1	80	n/a	n/a	1	n/a	n/a	n/a	n/a	n/a	n/a	n/a	n/a
890.8152	1	31	n/a	n/a	1	n/a	n/a	n/a	n/a	n/a	n/a	n/a	n/a
892.7796	1	10	1365	1365	1	1	0	0	0	0	0.4	0.4	6
894.127	1	20	n/a	n/a	1	n/a	n/a	n/a	n/a	n/a	n/a	n/a	n/a
895.7694	1	80	n/a	n/a	1	n/a	n/a	n/a	n/a	n/a	n/a	n/a	n/a
895.867	1	80	n/a	n/a	1	n/a	n/a	n/a	n/a	n/a	n/a	n/a	n/a
896.0756	1	30	n/a	n/a	1	n/a	n/a	n/a	n/a	n/a	n/a	n/a	n/a
898.0404	1	10	749.2	749.2	1	1	0	0	0	0	0.1	0.1	7
898.7866	1	20	n/a	n/a	1	n/a	n/a	n/a	n/a	n/a	n/a	n/a	n/a
900.4788	1	80	n/a	n/a	1	n/a	n/a	n/a	n/a	n/a	n/a	n/a	n/a
900.5764	1	80	n/a	n/a	1	n/a	n/a	n/a	n/a	n/a	n/a	n/a	n/a
900.7832	1	31	n/a	n/a	1	n/a	n/a	n/a	n/a	n/a	n/a	n/a	n/a
902.7476	1	10	812.1	812.1	1	1	0	0	0	0	0.2	0.2	8
903.5426	1	20	n/a	n/a	1	n/a	n/a	n/a	n/a	n/a	n/a	n/a	n/a
905.3904	1	80	n/a	n/a	1	n/a	n/a	n/a	n/a	n/a	n/a	n/a	n/a
905.488	1	80	n/a	n/a	1	n/a	n/a	n/a	n/a	n/a	n/a	n/a	n/a
905.685	1	31	n/a	n/a	1	n/a	n/a	n/a	n/a	n/a	n/a	n/a	n/a
907.6492	1	10	1122.9	1122.9	1	1	0	0	0	0	0.3	0.3	9
908.753	1	20	n/a	n/a	1	n/a	n/a	n/a	n/a	n/a	n/a	n/a	n/a
909.8434	1	80	n/a	n/a	1	n/a	n/a	n/a	n/a	n/a	n/a	n/a	n/a
909.9406	1	80	n/a	n/a	1	n/a	n/a	n/a	n/a	n/a	n/a	n/a	n/a
910.1494	1	30	n/a	n/a	1	n/a	n/a	n/a	n/a	n/a	n/a	n/a	n/a
912.1136	1	10	1003.7	1003.7	1	1	0	0	0	0	0.1	0.1	10
913.1036	1	20	n/a	n/a	1	n/a	n/a	n/a	n/a	n/a	n/a	n/a	n/a
914.6718	1	80	n/a	n/a	1	n/a	n/a	n/a	n/a	n/a	n/a	n/a	n/a
914.7694	1	80	n/a	n/a	1	n/a	n/a	n/a	n/a	n/a	n/a	n/a	n/a
914.9708	1	31	n/a	n/a	1	n/a	n/a	n/a	n/a	n/a	n/a	n/a	n/a
925.7176	1	10	1389.6	1389.6	1	1	0	0	0.8	0.72938	0.3	0.4175	11
927.081	1	20	n/a	n/a	1	n/a	n/a	n/a	n/a	n/a	n/a	n/a	n/a
928.5218	1	80	n/a	n/a	1	n/a	n/a	n/a	n/a	n/a	n/a	n/a	n/a
928.619	1	80	n/a	n/a	1	n/a	n/a	n/a	n/a	n/a	n/a	n/a	n/a
928.8178	1	31	n/a	n/a	1	n/a	n/a	n/a	n/a	n/a	n/a	n/a	n/a
930.7822	1	40	n/a	n/a	1	n/a	n/a	n/a	n/a	n/a	n/a	n/a	n/a
932.7464	1	10	1373.2	1373.2	1	1	0	0	0.4	0.9023	0.1	0.10153	12
934.0936	1	20	n/a	n/a	1	n/a	n/a	n/a	n/a	n/a	n/a	n/a	n/a
935.405	1	80	n/a	n/a	1	n/a	n/a	n/a	n/a	n/a	n/a	n/a	n/a
935.5022	1	80	n/a	n/a	1	n/a	n/a	n/a	n/a	n/a	n/a	n/a	n/a
935.7014	1	31	n/a	n/a	1	n/a	n/a	n/a	n/a	n/a	n/a	n/a	n/a
937.6652	1	40	n/a	n/a	1	n/a	n/a	n/a	n/a	n/a	n/a	n/a	n/a
939.63	1	10	2338.8	2338.8	1	1	0	0	0.4	0.8839	0.1	0.089264	13
941.9182	1	20	n/a	n/a	1	n/a	n/a	n/a	n/a	n/a	n/a	n/a	n/a
943.7044	1	80	n/a	n/a	1	n/a	n/a	n/a	n/a	n/a	n/a	n/a	n/a
943.8018	1	80	n/a	n/a	1	n/a	n/a	n/a	n/a	n/a	n/a	n/a	n/a
944.0124	1	30	n/a	n/a	1	n/a	n/a	n/a	n/a	n/a	n/a	n/a	n/a
945.9766	1	40	n/a	n/a	1	n/a	n/a	n/a	n/a	n/a	n/a	n/a	n/a
947.9406	1	10	1325.8	1325.8	1	1	0	0	0.4	0.07791	0.8	0.71861	14
949.2392	1	20	n/a	n/a	1	n/a	n/a	n/a	n/a	n/a	n/a	n/a	n/a
951.1058	1	80	n/a	n/a	1	n/a	n/a	n/a	n/a	n/a	n/a	n/a	n/a
951.2032	1	80	n/a	n/a	1	n/a	n/a	n/a	n/a	n/a	n/a	n/a	n/a
951.4144	1	31	n/a	n/a	1	n/a	n/a	n/a	n/a	n/a	n/a	n/a	n/a
953.38	1	40	n/a	n/a	1	n/a	n/a	n/a	n/a	n/a	n/a	n/a	n/a
955.344	1	10	1486.1	1486.1	1	1	0	0	0.8	0.97479	0.2	0.89917	15
956.805	1	20	n/a	n/a	1	n/a	n/a	n/a	n/a	n/a	n/a	n/a	n/a
958.6674	1	80	n/a	n/a	1	n/a	n/a	n/a	n/a	n/a	n/a	n/a	n/a
958.765	1	80	n/a	n/a	1	n/a	n/a	n/a	n/a	n/a	n/a	n/a	n/a
958.9642	1	30	n/a	n/a	1	n/a	n/a	n/a	n/a	n/a	n/a	n/a	n/a
960.9286	1	40	n/a	n/a	1	n/a	n/a	n/a	n/a	n/a	n/a	n/a	n/a
962.8924	1	10	2008.2	2008.2	1	1	0	0	0.8	0.19509	0.2	0.0625	16
964.8562	1	20	n/a	n/a	1	n/a	n/a	n/a	n/a	n/a	n/a	n/a	n/a
966.005	1	80	n/a	n/a	1	n/a	n/a	n/a	n/a	n/a	n/a	n/a	n/a
966.1016	1	80	n/a	n/a	1	n/a	n/a	n/a	n/a	n/a	n/a	n/a	n/a
966.301	1	31	n/a	n/a	1	n/a	n/a	n/a	n/a	n/a	n/a	n/a	n/a
968.265	1	40	n/a	n/a	1	n/a	n/a	n/a	n/a	n/a	n/a	n/a	n/a
970.23	1	10	3323.2	3323.2	1	1	0	0	0.7	0.94296	0.3	0.86691	17
973.477	1	20	n/a	n/a	1	n/a	n/a	n/a	n/a	n/a	n/a	n/a	n/a
975.0716	1	80	n/a	n/a	1	n/a	n/a	n/a	n/a	n/a	n/a	n/a	n/a
975.1692	1	80	n/a	n/a	1	n/a	n/a	n/a	n/a	n/a	n/a	n/a	n/a
975.3766	1	31	n/a	n/a	1	n/a	n/a	n/a	n/a	n/a	n/a	n/a	n/a
977.3404	1	40	n/a	n/a	1	n/a	n/a	n/a	n/a	n/a	n/a	n/a	n/a
979.3046	1	10	2070.9	2070.9	1	1	0	0	0.8	0.91419	0.1	0.15677	18
981.3334	1	20	n/a	n/a	1	n/a	n/a	n/a	n/a	n/a	n/a	n/a	n/a
982.9716	1	80	n/a	n/a	1	n/a	n/a	n/a	n/a	n/a	n/a	n/a	n/a
983.0692	1	80	n/a	n/a	1	n/a	n/a	n/a	n/a	n/a	n/a	n/a	n/a
983.2818	1	31	n/a	n/a	1	n/a	n/a	n/a	n/a	n/a	n/a	n/a	n/a
985.2456	1	40	n/a	n/a	1	n/a	n/a	n/a	n/a	n/a	n/a	n/a	n/a
987.2094	1	10	770.6	770.6	1	1	0	0	0.8	0.84952	0.9	0.9375	19
987.9722	1	20	n/a	n/a	1	n/a	n/a	n/a	n/a	n/a	n/a	n/a	n/a
989.2748	1	80	n/a	n/a	1	n/a	n/a	n/a	n/a	n/a	n/a	n/a	n/a
989.3722	1	80	n/a	n/a	1	n/a	n/a	n/a	n/a	n/a	n/a	n/a	n/a
989.5796	1	31	n/a	n/a	1	n/a	n/a	n/a	n/a	n/a	n/a	n/a	n/a
991.544	1	40	n/a	n/a	1	n/a	n/a	n/a	n/a	n/a	n/a	n/a	n/a
993.509	1	10	1184.2	1184.2	1	1	0	0	0.8	0.26368	0.6	0.0625	20
994.6778	1	20	n/a	n/a	1	n/a	n/a	n/a	n/a	n/a	n/a	n/a	n/a
995.9382	1	80	n/a	n/a	1	n/a	n/a	n/a	n/a	n/a	n/a	n/a	n/a
996.0356	1	80	n/a	n/a	1	n/a	n/a	n/a	n/a	n/a	n/a	n/a	n/a
996.2358	1	31	n/a	n/a	1	n/a	n/a	n/a	n/a	n/a	n/a	n/a	n/a
998.2	1	40	n/a	n/a	1	n/a	n/a	n/a	n/a	n/a	n/a	n/a	n/a
1008.947	1	10	1174.7	1174.7	1	1	0	0	0	0	0.4	0.4	21
1010.0994	1	20	n/a	n/a	1	n/a	n/a	n/a	n/a	n/a	n/a	n/a	n/a
1012.0014	1	80	n/a	n/a	1	n/a	n/a	n/a	n/a	n/a	n/a	n/a	n/a
1012.0986	1	80	n/a	n/a	1	n/a	n/a	n/a	n/a	n/a	n/a	n/a	n/a
1012.3074	1	31	n/a	n/a	1	n/a	n/a	n/a	n/a	n/a	n/a	n/a	n/a
1014.2716	1	10	988.2	988.2	1	1	0	0	0	0	0.5	0.5	22
1015.2458	1	20	n/a	n/a	1	n/a	n/a	n/a	n/a	n/a	n/a	n/a	n/a
1016.6648	1	80	n/a	n/a	1	n/a	n/a	n/a	n/a	n/a	n/a	n/a	n/a
1016.7624	1	80	n/a	n/a	1	n/a	n/a	n/a	n/a	n/a	n/a	n/a	n/a
1016.966	1	30	n/a	n/a	1	n/a	n/a	n/a	n/a	n/a	n/a	n/a	n/a
1018.9302	1	10	909	909	1	1	0	0	0	0	0.1	0.1	23
1019.8228	1	20	n/a	n/a	1	n/a	n/a	n/a	n/a	n/a	n/a	n/a	n/a
1021.2556	1	80	n/a	n/a	1	n/a	n/a	n/a	n/a	n/a	n/a	n/a	n/a
1021.3528	1	80	n/a	n/a	1	n/a	n/a	n/a	n/a	n/a	n/a	n/a	n/a
1021.5604	1	31	n/a	n/a	1	n/a	n/a	n/a	n/a	n/a	n/a	n/a	n/a
1023.525	1	10	1552.6	1552.6	1	1	0	0	0	0	0.6	0.6	24
1025.051	1	20	n/a	n/a	1	n/a	n/a	n/a	n/a	n/a	n/a	n/a	n/a
1026.3938	1	80	n/a	n/a	1	n/a	n/a	n/a	n/a	n/a	n/a	n/a	n/a
1026.4908	1	80	n/a	n/a	1	n/a	n/a	n/a	n/a	n/a	n/a	n/a	n/a
1026.6908	1	30	n/a	n/a	1	n/a	n/a	n/a	n/a	n/a	n/a	n/a	n/a
1028.6554	1	10	1518.1	1518.1	1	1	0	0	0	0	0.5	0.5	25
1030.1492	1	20	n/a	n/a	1	n/a	n/a	n/a	n/a	n/a	n/a	n/a	n/a
1031.675	1	80	n/a	n/a	1	n/a	n/a	n/a	n/a	n/a	n/a	n/a	n/a
1031.7726	1	80	n/a	n/a	1	n/a	n/a	n/a	n/a	n/a	n/a	n/a	n/a
1031.9834	1	30	n/a	n/a	1	n/a	n/a	n/a	n/a	n/a	n/a	n/a	n/a
1033.9472	1	10	516.9	516.9	1	1	0	0	0	0	0.5	0.5	26
1034.4664	1	20	n/a	n/a	1	n/a	n/a	n/a	n/a	n/a	n/a	n/a	n/a
1036.3718	1	80	n/a	n/a	1	n/a	n/a	n/a	n/a	n/a	n/a	n/a	n/a
1036.4694	1	80	n/a	n/a	1	n/a	n/a	n/a	n/a	n/a	n/a	n/a	n/a
1036.6738	1	30	n/a	n/a	1	n/a	n/a	n/a	n/a	n/a	n/a	n/a	n/a
1038.6382	1	10	1412.5	1412.5	1	1	0	0	0	0	0.9	0.9	27
1040.0182	1	20	n/a	n/a	1	n/a	n/a	n/a	n/a	n/a	n/a	n/a	n/a
1041.7654	1	80	n/a	n/a	1	n/a	n/a	n/a	n/a	n/a	n/a	n/a	n/a
1041.863	1	80	n/a	n/a	1	n/a	n/a	n/a	n/a	n/a	n/a	n/a	n/a
1042.063	1	31	n/a	n/a	1	n/a	n/a	n/a	n/a	n/a	n/a	n/a	n/a
1044.0274	1	10	567.3	567.3	1	1	0	0	0	0	0.9	0.9	28
1044.5958	1	20	n/a	n/a	1	n/a	n/a	n/a	n/a	n/a	n/a	n/a	n/a
1045.8996	1	80	n/a	n/a	1	n/a	n/a	n/a	n/a	n/a	n/a	n/a	n/a
1045.9972	1	80	n/a	n/a	1	n/a	n/a	n/a	n/a	n/a	n/a	n/a	n/a
1046.2032	1	31	n/a	n/a	1	n/a	n/a	n/a	n/a	n/a	n/a	n/a	n/a
1048.1676	1	10	653.4	653.4	1	1	0	0	0	0	0.9	0.9	29
1048.8178	1	20	n/a	n/a	1	n/a	n/a	n/a	n/a	n/a	n/a	n/a	n/a
1050.7114	1	80	n/a	n/a	1	n/a	n/a	n/a	n/a	n/a	n/a	n/a	n/a
1050.8088	1	80	n/a	n/a	1	n/a	n/a	n/a	n/a	n/a	n/a	n/a	n/a
1051.0092	1	31	n/a	n/a	1	n/a	n/a	n/a	n/a	n/a	n/a	n/a	n/a
1052.973	1	10	1432.4	1432.4	1	1	0	0	0	0	0.3	0.3	30
1054.3856	1	20	n/a	n/a	1	n/a	n/a	n/a	n/a	n/a	n/a	n/a	n/a
1055.563	1	80	n/a	n/a	1	n/a	n/a	n/a	n/a	n/a	n/a	n/a	n/a
1055.6606	1	80	n/a	n/a	1	n/a	n/a	n/a	n/a	n/a	n/a	n/a	n/a
1055.8626	1	30	n/a	n/a	1	n/a	n/a	n/a	n/a	n/a	n/a	n/a	n/a
1066.6102	1	10	1336.8	1336.8	1	1	0	0	0.4	0.64404	0.2	0.096027	31
1067.9254	1	20	n/a	n/a	1	n/a	n/a	n/a	n/a	n/a	n/a	n/a	n/a
1069.028	1	80	n/a	n/a	1	n/a	n/a	n/a	n/a	n/a	n/a	n/a	n/a
1069.1256	1	80	n/a	n/a	1	n/a	n/a	n/a	n/a	n/a	n/a	n/a	n/a
1069.3382	1	31	n/a	n/a	1	n/a	n/a	n/a	n/a	n/a	n/a	n/a	n/a
1071.302	1	40	n/a	n/a	1	n/a	n/a	n/a	n/a	n/a	n/a	n/a	n/a
1073.2656	1	10	2839.7	2839.7	1	1	0	0	0.4	0.19097	0.9	0.96064	32
1076.0416	1	20	n/a	n/a	1	n/a	n/a	n/a	n/a	n/a	n/a	n/a	n/a
1077.6246	1	80	n/a	n/a	1	n/a	n/a	n/a	n/a	n/a	n/a	n/a	n/a
1077.7222	1	80	n/a	n/a	1	n/a	n/a	n/a	n/a	n/a	n/a	n/a	n/a
1077.9248	1	31	n/a	n/a	1	n/a	n/a	n/a	n/a	n/a	n/a	n/a	n/a
1079.8898	1	40	n/a	n/a	1	n/a	n/a	n/a	n/a	n/a	n/a	n/a	n/a
1081.8548	1	10	2151.4	2151.4	1	1	0	0	0.6	0.66589	0.5	0.74884	33
1083.9656	1	20	n/a	n/a	1	n/a	n/a	n/a	n/a	n/a	n/a	n/a	n/a
1085.4138	1	80	n/a	n/a	1	n/a	n/a	n/a	n/a	n/a	n/a	n/a	n/a
1085.511	1	80	n/a	n/a	1	n/a	n/a	n/a	n/a	n/a	n/a	n/a	n/a
1085.7188	1	30	n/a	n/a	1	n/a	n/a	n/a	n/a	n/a	n/a	n/a	n/a
1087.6826	1	40	n/a	n/a	1	n/a	n/a	n/a	n/a	n/a	n/a	n/a	n/a
1089.6464	1	10	2119.7	2119.7	1	1	0	0	0.4	0.028546	0.9	0.85236	34
1091.7246	1	20	n/a	n/a	1	n/a	n/a	n/a	n/a	n/a	n/a	n/a	n/a
1093.3804	1	80	n/a	n/a	1	n/a	n/a	n/a	n/a	n/a	n/a	n/a	n/a
1093.478	1	80	n/a	n/a	1	n/a	n/a	n/a	n/a	n/a	n/a	n/a	n/a
1093.6886	1	31	n/a	n/a	1	n/a	n/a	n/a	n/a	n/a	n/a	n/a	n/a
1095.6536	1	40	n/a	n/a	1	n/a	n/a	n/a	n/a	n/a	n/a	n/a	n/a
1097.6192	1	10	1776.7	1776.7	1	1	0	0	0.8	0.98238	0.1	0.42952	35
1099.3556	1	20	n/a	n/a	1	n/a	n/a	n/a	n/a	n/a	n/a	n/a	n/a
1101.0104	1	80	n/a	n/a	1	n/a	n/a	n/a	n/a	n/a	n/a	n/a	n/a
1101.108	1	80	n/a	n/a	1	n/a	n/a	n/a	n/a	n/a	n/a	n/a	n/a
1101.3196	1	31	n/a	n/a	1	n/a	n/a	n/a	n/a	n/a	n/a	n/a	n/a
1103.284	1	40	n/a	n/a	1	n/a	n/a	n/a	n/a	n/a	n/a	n/a	n/a
1105.248	1	10	2247.6	2247.6	1	1	0	0	0.7	0.62146	0.5	0.7834	36
1107.4388	1	20	n/a	n/a	1	n/a	n/a	n/a	n/a	n/a	n/a	n/a	n/a
1109.2622	1	80	n/a	n/a	1	n/a	n/a	n/a	n/a	n/a	n/a	n/a	n/a
1109.3598	1	80	n/a	n/a	1	n/a	n/a	n/a	n/a	n/a	n/a	n/a	n/a
1109.5652	1	31	n/a	n/a	1	n/a	n/a	n/a	n/a	n/a	n/a	n/a	n/a
1111.5294	1	40	n/a	n/a	1	n/a	n/a	n/a	n/a	n/a	n/a	n/a	n/a
1113.4938	1	10	3093.2	3093.2	1	1	0	0	0.5	0.87924	0.1	0.079238	37
1116.5134	1	20	n/a	n/a	1	n/a	n/a	n/a	n/a	n/a	n/a	n/a	n/a
1117.8812	1	80	n/a	n/a	1	n/a	n/a	n/a	n/a	n/a	n/a	n/a	n/a
1117.9788	1	80	n/a	n/a	1	n/a	n/a	n/a	n/a	n/a	n/a	n/a	n/a
1118.1862	1	30	n/a	n/a	1	n/a	n/a	n/a	n/a	n/a	n/a	n/a	n/a
1120.1504	1	40	n/a	n/a	1	n/a	n/a	n/a	n/a	n/a	n/a	n/a	n/a
1122.1152	1	10	2979.5	2979.5	1	1	0	0	0.6	0.60898	0.3	0.16347	38
1125.0204	1	20	n/a	n/a	1	n/a	n/a	n/a	n/a	n/a	n/a	n/a	n/a
1126.4978	1	80	n/a	n/a	1	n/a	n/a	n/a	n/a	n/a	n/a	n/a	n/a
1126.5954	1	80	n/a	n/a	1	n/a	n/a	n/a	n/a	n/a	n/a	n/a	n/a
1126.8064	1	30	n/a	n/a	1	n/a	n/a	n/a	n/a	n/a	n/a	n/a	n/a
1128.7706	1	40	n/a	n/a	1	n/a	n/a	n/a	n/a	n/a	n/a	n/a	n/a
1130.7358	1	10	2129.9	2129.9	1	1	0	0	0.6	0.87753	0.5	0.96875	39
1132.8146	1	20	n/a	n/a	1	n/a	n/a	n/a	n/a	n/a	n/a	n/a	n/a
1133.9836	1	80	n/a	n/a	1	n/a	n/a	n/a	n/a	n/a	n/a	n/a	n/a
1134.0808	1	80	n/a	n/a	1	n/a	n/a	n/a	n/a	n/a	n/a	n/a	n/a
1134.292	1	31	n/a	n/a	1	n/a	n/a	n/a	n/a	n/a	n/a	n/a	n/a
1136.2568	1	40	n/a	n/a	1	n/a	n/a	n/a	n/a	n/a	n/a	n/a	n/a
1138.2204	1	10	2190.8	2190.8	1	1	0	0	0.4	0.31251	0.9	0.97917	40
1140.364	1	20	n/a	n/a	1	n/a	n/a	n/a	n/a	n/a	n/a	n/a	n/a
1141.7524	1	80	n/a	n/a	1	n/a	n/a	n/a	n/a	n/a	n/a	n/a	n/a
1141.8498	1	80	n/a	n/a	1	n/a	n/a	n/a	n/a	n/a	n/a	n/a	n/a
1142.0522	1	31	n/a	n/a	1	n/a	n/a	n/a	n/a	n/a	n/a	n/a	n/a
1144.016	1	40	n/a	n/a	1	n/a	n/a	n/a	n/a	n/a	n/a	n/a	n/a
1174.0838	1	10	2703.6	2703.6	1	0	0	1	0	0	0.4	0.4	1
1176.73	1	20	n/a	n/a	1	n/a	n/a	n/a	n/a	n/a	n/a	n/a	n/a
1178.571	1	80	n/a	n/a	1	n/a	n/a	n/a	n/a	n/a	n/a	n/a	n/a
1178.6686	1	80	n/a	n/a	1	n/a	n/a	n/a	n/a	n/a	n/a	n/a	n/a
1178.8732	1	31	n/a	n/a	1	n/a	n/a	n/a	n/a	n/a	n/a	n/a	n/a
1180.8372	1	10	1642.5	1642.5	1	0	0	1	0	0	0.1	0.1	2
1182.4442	1	20	n/a	n/a	1	n/a	n/a	n/a	n/a	n/a	n/a	n/a	n/a
1183.4536	1	80	n/a	n/a	1	n/a	n/a	n/a	n/a	n/a	n/a	n/a	n/a
1183.5512	1	80	n/a	n/a	1	n/a	n/a	n/a	n/a	n/a	n/a	n/a	n/a
1183.7588	1	30	n/a	n/a	1	n/a	n/a	n/a	n/a	n/a	n/a	n/a	n/a
1185.723	1	10	2369.9	2369.9	1	0	0	1	0	0	0.4	0.4	3
1188.044	1	20	n/a	n/a	1	n/a	n/a	n/a	n/a	n/a	n/a	n/a	n/a
1189.155	1	80	n/a	n/a	1	n/a	n/a	n/a	n/a	n/a	n/a	n/a	n/a
1189.252	1	80	n/a	n/a	1	n/a	n/a	n/a	n/a	n/a	n/a	n/a	n/a
1189.4568	1	31	n/a	n/a	1	n/a	n/a	n/a	n/a	n/a	n/a	n/a	n/a
1191.4222	1	10	1960.1	1960.1	1	0	0	1	0	0	0.3	0.3	4
1193.3374	1	20	n/a	n/a	1	n/a	n/a	n/a	n/a	n/a	n/a	n/a	n/a
1195.1306	1	80	n/a	n/a	1	n/a	n/a	n/a	n/a	n/a	n/a	n/a	n/a
1195.2282	1	80	n/a	n/a	1	n/a	n/a	n/a	n/a	n/a	n/a	n/a	n/a
1195.4318	1	31	n/a	n/a	1	n/a	n/a	n/a	n/a	n/a	n/a	n/a	n/a
1197.396	1	10	2515	2515	1	0	0	1	0	0	0.3	0.3	5
1199.8632	1	20	n/a	n/a	1	n/a	n/a	n/a	n/a	n/a	n/a	n/a	n/a
1201.463	1	80	n/a	n/a	1	n/a	n/a	n/a	n/a	n/a	n/a	n/a	n/a
1201.5606	1	80	n/a	n/a	1	n/a	n/a	n/a	n/a	n/a	n/a	n/a	n/a
1201.7624	1	30	n/a	n/a	1	n/a	n/a	n/a	n/a	n/a	n/a	n/a	n/a
1203.7266	1	10	1087.4	1087.4	1	0	0	1	0	0	0.1	0.1	6
1204.7974	1	20	n/a	n/a	1	n/a	n/a	n/a	n/a	n/a	n/a	n/a	n/a
1206.3386	1	80	n/a	n/a	1	n/a	n/a	n/a	n/a	n/a	n/a	n/a	n/a
1206.4362	1	80	n/a	n/a	1	n/a	n/a	n/a	n/a	n/a	n/a	n/a	n/a
1206.6488	1	31	n/a	n/a	1	n/a	n/a	n/a	n/a	n/a	n/a	n/a	n/a
1208.6134	1	10	1734.8	1734.8	1	0	0	1	0	0	0.1	0.1	7
1210.3196	1	20	n/a	n/a	1	n/a	n/a	n/a	n/a	n/a	n/a	n/a	n/a
1211.9078	1	80	n/a	n/a	1	n/a	n/a	n/a	n/a	n/a	n/a	n/a	n/a
1212.005	1	80	n/a	n/a	1	n/a	n/a	n/a	n/a	n/a	n/a	n/a	n/a
1212.2032	1	31	n/a	n/a	1	n/a	n/a	n/a	n/a	n/a	n/a	n/a	n/a
1214.1674	1	10	2355	2355	1	0	0	1	0	0	0.4	0.4	8
1216.4722	1	20	n/a	n/a	1	n/a	n/a	n/a	n/a	n/a	n/a	n/a	n/a
1217.9918	1	80	n/a	n/a	1	n/a	n/a	n/a	n/a	n/a	n/a	n/a	n/a
1218.0894	1	80	n/a	n/a	1	n/a	n/a	n/a	n/a	n/a	n/a	n/a	n/a
1218.2906	1	31	n/a	n/a	1	n/a	n/a	n/a	n/a	n/a	n/a	n/a	n/a
1220.2542	1	10	4409.2	4409.2	1	0	0	1	0	0	0.7	0.7	9
1224.5558	1	20	n/a	n/a	1	n/a	n/a	n/a	n/a	n/a	n/a	n/a	n/a
1225.7316	1	80	n/a	n/a	1	n/a	n/a	n/a	n/a	n/a	n/a	n/a	n/a
1225.8292	1	80	n/a	n/a	1	n/a	n/a	n/a	n/a	n/a	n/a	n/a	n/a
1226.0334	1	30	n/a	n/a	1	n/a	n/a	n/a	n/a	n/a	n/a	n/a	n/a
1227.9974	1	10	1467.6	1467.6	1	0	0	1	0	0	0.2	0.2	10
1229.4426	1	20	n/a	n/a	1	n/a	n/a	n/a	n/a	n/a	n/a	n/a	n/a
1230.7994	1	80	n/a	n/a	1	n/a	n/a	n/a	n/a	n/a	n/a	n/a	n/a
1230.8966	1	80	n/a	n/a	1	n/a	n/a	n/a	n/a	n/a	n/a	n/a	n/a
1231.098	1	31	n/a	n/a	1	n/a	n/a	n/a	n/a	n/a	n/a	n/a	n/a
1241.8442	1	10	1251.4	1251.4	1	0	0	1	0.7	0.047949	0.7	0.11188	11
1243.0774	1	20	n/a	n/a	1	n/a	n/a	n/a	n/a	n/a	n/a	n/a	n/a
1244.7428	1	80	n/a	n/a	1	n/a	n/a	n/a	n/a	n/a	n/a	n/a	n/a
1244.8404	1	80	n/a	n/a	1	n/a	n/a	n/a	n/a	n/a	n/a	n/a	n/a
1245.042	1	30	n/a	n/a	1	n/a	n/a	n/a	n/a	n/a	n/a	n/a	n/a
1247.0066	1	40	n/a	n/a	1	n/a	n/a	n/a	n/a	n/a	n/a	n/a	n/a
1248.9712	1	10	4446.9	4446.9	1	0	0	1	0.5	0.16097	0.1	0.025	12
1253.3052	1	20	n/a	n/a	1	n/a	n/a	n/a	n/a	n/a	n/a	n/a	n/a
1255.1498	1	80	n/a	n/a	1	n/a	n/a	n/a	n/a	n/a	n/a	n/a	n/a
1255.2474	1	80	n/a	n/a	1	n/a	n/a	n/a	n/a	n/a	n/a	n/a	n/a
1255.4474	1	31	n/a	n/a	1	n/a	n/a	n/a	n/a	n/a	n/a	n/a	n/a
1257.4122	1	40	n/a	n/a	1	n/a	n/a	n/a	n/a	n/a	n/a	n/a	n/a
1259.3764	1	10	1364.1	1364.1	1	0	0	1	0.8	0.75213	0.3	0.50851	13
1260.7076	1	20	n/a	n/a	1	n/a	n/a	n/a	n/a	n/a	n/a	n/a	n/a
1262.2784	1	80	n/a	n/a	1	n/a	n/a	n/a	n/a	n/a	n/a	n/a	n/a
1262.3756	1	80	n/a	n/a	1	n/a	n/a	n/a	n/a	n/a	n/a	n/a	n/a
1262.5752	1	31	n/a	n/a	1	n/a	n/a	n/a	n/a	n/a	n/a	n/a	n/a
1264.541	1	40	n/a	n/a	1	n/a	n/a	n/a	n/a	n/a	n/a	n/a	n/a
1266.5052	1	10	1951.7	1951.7	1	0	0	1	0.5	0.23121	0.7	0.63121	14
1268.4208	1	20	n/a	n/a	1	n/a	n/a	n/a	n/a	n/a	n/a	n/a	n/a
1270.2442	1	80	n/a	n/a	1	n/a	n/a	n/a	n/a	n/a	n/a	n/a	n/a
1270.3414	1	80	n/a	n/a	1	n/a	n/a	n/a	n/a	n/a	n/a	n/a	n/a
1270.547	1	31	n/a	n/a	1	n/a	n/a	n/a	n/a	n/a	n/a	n/a	n/a
1272.5112	1	40	n/a	n/a	1	n/a	n/a	n/a	n/a	n/a	n/a	n/a	n/a
1274.4754	1	10	2104.6	2104.6	1	0	0	1	0.8	0.43393	0.2	0.0625	15
1276.5372	1	20	n/a	n/a	1	n/a	n/a	n/a	n/a	n/a	n/a	n/a	n/a
1278.124	1	80	n/a	n/a	1	n/a	n/a	n/a	n/a	n/a	n/a	n/a	n/a
1278.2216	1	80	n/a	n/a	1	n/a	n/a	n/a	n/a	n/a	n/a	n/a	n/a
1278.42	1	31	n/a	n/a	1	n/a	n/a	n/a	n/a	n/a	n/a	n/a	n/a
1280.3836	1	40	n/a	n/a	1	n/a	n/a	n/a	n/a	n/a	n/a	n/a	n/a
1282.3486	1	10	2533.5	2533.5	1	0	0	1	0.5	0.16767	0.8	0.76767	16
1284.8336	1	20	n/a	n/a	1	n/a	n/a	n/a	n/a	n/a	n/a	n/a	n/a
1286.693	1	80	n/a	n/a	1	n/a	n/a	n/a	n/a	n/a	n/a	n/a	n/a
1286.7904	1	80	n/a	n/a	1	n/a	n/a	n/a	n/a	n/a	n/a	n/a	n/a
1286.9932	1	30	n/a	n/a	1	n/a	n/a	n/a	n/a	n/a	n/a	n/a	n/a
1288.957	1	40	n/a	n/a	1	n/a	n/a	n/a	n/a	n/a	n/a	n/a	n/a
1290.9208	1	10	2405.9	2405.9	1	0	0	1	0.5	0.76219	0.6	0.96219	17
1293.2748	1	20	n/a	n/a	1	n/a	n/a	n/a	n/a	n/a	n/a	n/a	n/a
1294.7752	1	80	n/a	n/a	1	n/a	n/a	n/a	n/a	n/a	n/a	n/a	n/a
1294.8726	1	80	n/a	n/a	1	n/a	n/a	n/a	n/a	n/a	n/a	n/a	n/a
1295.0768	1	31	n/a	n/a	1	n/a	n/a	n/a	n/a	n/a	n/a	n/a	n/a
1297.0404	1	40	n/a	n/a	1	n/a	n/a	n/a	n/a	n/a	n/a	n/a	n/a
1299.0048	1	10	1354.3	1354.3	1	0	0	1	0.5	0.88358	0.3	0.48358	18
1300.3362	1	20	n/a	n/a	1	n/a	n/a	n/a	n/a	n/a	n/a	n/a	n/a
1302.1544	1	80	n/a	n/a	1	n/a	n/a	n/a	n/a	n/a	n/a	n/a	n/a
1302.2516	1	80	n/a	n/a	1	n/a	n/a	n/a	n/a	n/a	n/a	n/a	n/a
1302.4632	1	30	n/a	n/a	1	n/a	n/a	n/a	n/a	n/a	n/a	n/a	n/a
1304.4274	1	40	n/a	n/a	1	n/a	n/a	n/a	n/a	n/a	n/a	n/a	n/a
1306.3918	1	10	2011.1	2011.1	1	0	0	1	0.7	0.14675	0.1	0.041667	19
1308.356	1	20	n/a	n/a	1	n/a	n/a	n/a	n/a	n/a	n/a	n/a	n/a
1310.2754	1	80	n/a	n/a	1	n/a	n/a	n/a	n/a	n/a	n/a	n/a	n/a
1310.373	1	80	n/a	n/a	1	n/a	n/a	n/a	n/a	n/a	n/a	n/a	n/a
1310.5794	1	30	n/a	n/a	1	n/a	n/a	n/a	n/a	n/a	n/a	n/a	n/a
1312.5436	1	40	n/a	n/a	1	n/a	n/a	n/a	n/a	n/a	n/a	n/a	n/a
1314.508	1	10	2638.1	2638.1	1	0	0	1	0.5	0.66674	0.2	0.066738	20
1317.0888	1	20	n/a	n/a	1	n/a	n/a	n/a	n/a	n/a	n/a	n/a	n/a
1318.3658	1	80	n/a	n/a	1	n/a	n/a	n/a	n/a	n/a	n/a	n/a	n/a
1318.4632	1	80	n/a	n/a	1	n/a	n/a	n/a	n/a	n/a	n/a	n/a	n/a
1318.6642	1	30	n/a	n/a	1	n/a	n/a	n/a	n/a	n/a	n/a	n/a	n/a
1320.6298	1	40	n/a	n/a	1	n/a	n/a	n/a	n/a	n/a	n/a	n/a	n/a
1331.376	1	10	1514.1	1514.1	1	0	0	1	0	0	0.6	0.6	21
1332.8532	1	20	n/a	n/a	1	n/a	n/a	n/a	n/a	n/a	n/a	n/a	n/a
1334.052	1	80	n/a	n/a	1	n/a	n/a	n/a	n/a	n/a	n/a	n/a	n/a
1334.1492	1	80	n/a	n/a	1	n/a	n/a	n/a	n/a	n/a	n/a	n/a	n/a
1334.347	1	31	n/a	n/a	1	n/a	n/a	n/a	n/a	n/a	n/a	n/a	n/a
1336.312	1	10	1423.6	1423.6	1	0	0	1	0	0	0.2	0.2	22
1337.7082	1	20	n/a	n/a	1	n/a	n/a	n/a	n/a	n/a	n/a	n/a	n/a
1339.12	1	80	n/a	n/a	1	n/a	n/a	n/a	n/a	n/a	n/a	n/a	n/a
1339.217	1	80	n/a	n/a	1	n/a	n/a	n/a	n/a	n/a	n/a	n/a	n/a
1339.4292	1	31	n/a	n/a	1	n/a	n/a	n/a	n/a	n/a	n/a	n/a	n/a
1341.394	1	10	2207.1	2207.1	1	0	0	1	0	0	0.6	0.6	23
1343.5526	1	20	n/a	n/a	1	n/a	n/a	n/a	n/a	n/a	n/a	n/a	n/a
1345.4582	1	80	n/a	n/a	1	n/a	n/a	n/a	n/a	n/a	n/a	n/a	n/a
1345.5558	1	80	n/a	n/a	1	n/a	n/a	n/a	n/a	n/a	n/a	n/a	n/a
1345.76	1	30	n/a	n/a	1	n/a	n/a	n/a	n/a	n/a	n/a	n/a	n/a
1347.7244	1	10	1035.4	1035.4	1	0	0	1	0	0	0.9	0.9	24
1348.7466	1	20	n/a	n/a	1	n/a	n/a	n/a	n/a	n/a	n/a	n/a	n/a
1350.1682	1	80	n/a	n/a	1	n/a	n/a	n/a	n/a	n/a	n/a	n/a	n/a
1350.2658	1	80	n/a	n/a	1	n/a	n/a	n/a	n/a	n/a	n/a	n/a	n/a
1350.4674	1	31	n/a	n/a	1	n/a	n/a	n/a	n/a	n/a	n/a	n/a	n/a
1352.4316	1	10	906.2	906.2	1	0	0	1	0	0	0.1	0.1	25
1353.3244	1	20	n/a	n/a	1	n/a	n/a	n/a	n/a	n/a	n/a	n/a	n/a
1354.4062	1	80	n/a	n/a	1	n/a	n/a	n/a	n/a	n/a	n/a	n/a	n/a
1354.5038	1	80	n/a	n/a	1	n/a	n/a	n/a	n/a	n/a	n/a	n/a	n/a
1354.705	1	31	n/a	n/a	1	n/a	n/a	n/a	n/a	n/a	n/a	n/a	n/a
1356.6692	1	10	732.4	732.4	1	0	0	1	0	0	0.1	0.1	26
1357.3996	1	20	n/a	n/a	1	n/a	n/a	n/a	n/a	n/a	n/a	n/a	n/a
1359.0498	1	80	n/a	n/a	1	n/a	n/a	n/a	n/a	n/a	n/a	n/a	n/a
1359.1468	1	80	n/a	n/a	1	n/a	n/a	n/a	n/a	n/a	n/a	n/a	n/a
1359.348	1	31	n/a	n/a	1	n/a	n/a	n/a	n/a	n/a	n/a	n/a	n/a
1361.3118	1	10	717.9	717.9	1	0	0	1	0	0	0.1	0.1	27
1362.0258	1	20	n/a	n/a	1	n/a	n/a	n/a	n/a	n/a	n/a	n/a	n/a
1363.2606	1	80	n/a	n/a	1	n/a	n/a	n/a	n/a	n/a	n/a	n/a	n/a
1363.3576	1	80	n/a	n/a	1	n/a	n/a	n/a	n/a	n/a	n/a	n/a	n/a
1363.568	1	30	n/a	n/a	1	n/a	n/a	n/a	n/a	n/a	n/a	n/a	n/a
1365.5322	1	10	1440.6	1440.6	1	0	0	1	0	0	0.4	0.4	28
1366.9442	1	20	n/a	n/a	1	n/a	n/a	n/a	n/a	n/a	n/a	n/a	n/a
1368.6858	1	80	n/a	n/a	1	n/a	n/a	n/a	n/a	n/a	n/a	n/a	n/a
1368.783	1	80	n/a	n/a	1	n/a	n/a	n/a	n/a	n/a	n/a	n/a	n/a
1368.9896	1	30	n/a	n/a	1	n/a	n/a	n/a	n/a	n/a	n/a	n/a	n/a
1370.954	1	10	1058.2	1058.2	1	0	0	1	0	0	0.5	0.5	29
1371.9934	1	20	n/a	n/a	1	n/a	n/a	n/a	n/a	n/a	n/a	n/a	n/a
1373.6748	1	80	n/a	n/a	1	n/a	n/a	n/a	n/a	n/a	n/a	n/a	n/a
1373.7722	1	80	n/a	n/a	1	n/a	n/a	n/a	n/a	n/a	n/a	n/a	n/a
1373.9752	1	31	n/a	n/a	1	n/a	n/a	n/a	n/a	n/a	n/a	n/a	n/a
1375.9398	1	10	981.7	981.7	1	0	0	1	0	0	0.2	0.2	30
1376.914	1	20	n/a	n/a	1	n/a	n/a	n/a	n/a	n/a	n/a	n/a	n/a
1378.0764	1	80	n/a	n/a	1	n/a	n/a	n/a	n/a	n/a	n/a	n/a	n/a
1378.1728	1	80	n/a	n/a	1	n/a	n/a	n/a	n/a	n/a	n/a	n/a	n/a
1378.375	1	30	n/a	n/a	1	n/a	n/a	n/a	n/a	n/a	n/a	n/a	n/a
1386.4096	1	10	648.1	648.1	1	0	0	1	0.7	0.80529	0.2	0.21235	31
1387.0586	1	20	n/a	n/a	1	n/a	n/a	n/a	n/a	n/a	n/a	n/a	n/a
1388.469	1	80	n/a	n/a	1	n/a	n/a	n/a	n/a	n/a	n/a	n/a	n/a
1388.5668	1	80	n/a	n/a	1	n/a	n/a	n/a	n/a	n/a	n/a	n/a	n/a
1388.7636	1	30	n/a	n/a	1	n/a	n/a	n/a	n/a	n/a	n/a	n/a	n/a
1390.7284	1	40	n/a	n/a	1	n/a	n/a	n/a	n/a	n/a	n/a	n/a	n/a
1392.6922	1	10	406.4	406.4	1	0	0	1	0.7	0.46457	0.5	0.41733	32
1393.0982	1	20	n/a	n/a	1	n/a	n/a	n/a	n/a	n/a	n/a	n/a	n/a
1394.4418	1	80	n/a	n/a	1	n/a	n/a	n/a	n/a	n/a	n/a	n/a	n/a
1394.5394	1	80	n/a	n/a	1	n/a	n/a	n/a	n/a	n/a	n/a	n/a	n/a
1394.7382	1	30	n/a	n/a	1	n/a	n/a	n/a	n/a	n/a	n/a	n/a	n/a
1396.702	1	40	n/a	n/a	1	n/a	n/a	n/a	n/a	n/a	n/a	n/a	n/a
1398.6664	1	10	1089.2	1089.2	1	0	0	1	0.7	0.92183	0.2	0.48428	33
1399.7376	1	20	n/a	n/a	1	n/a	n/a	n/a	n/a	n/a	n/a	n/a	n/a
1401.3126	1	80	n/a	n/a	1	n/a	n/a	n/a	n/a	n/a	n/a	n/a	n/a
1401.4102	1	80	n/a	n/a	1	n/a	n/a	n/a	n/a	n/a	n/a	n/a	n/a
1401.6204	1	30	n/a	n/a	1	n/a	n/a	n/a	n/a	n/a	n/a	n/a	n/a
1403.5842	1	40	n/a	n/a	1	n/a	n/a	n/a	n/a	n/a	n/a	n/a	n/a
1405.5486	1	10	1670.8	1670.8	1	0	0	1	0.8	0.93559	0.2	0.74235	34
1407.1884	1	20	n/a	n/a	1	n/a	n/a	n/a	n/a	n/a	n/a	n/a	n/a
1409.1254	1	80	n/a	n/a	1	n/a	n/a	n/a	n/a	n/a	n/a	n/a	n/a
1409.223	1	80	n/a	n/a	1	n/a	n/a	n/a	n/a	n/a	n/a	n/a	n/a
1409.4288	1	31	n/a	n/a	1	n/a	n/a	n/a	n/a	n/a	n/a	n/a	n/a
1411.3936	1	40	n/a	n/a	1	n/a	n/a	n/a	n/a	n/a	n/a	n/a	n/a
1413.358	1	10	1334.5	1334.5	1	0	0	1	0.8	0.98183	0.1	0.42733	35
1414.673	1	20	n/a	n/a	1	n/a	n/a	n/a	n/a	n/a	n/a	n/a	n/a
1415.8658	1	80	n/a	n/a	1	n/a	n/a	n/a	n/a	n/a	n/a	n/a	n/a
1415.963	1	80	n/a	n/a	1	n/a	n/a	n/a	n/a	n/a	n/a	n/a	n/a
1416.1666	1	31	n/a	n/a	1	n/a	n/a	n/a	n/a	n/a	n/a	n/a	n/a
1418.131	1	40	n/a	n/a	1	n/a	n/a	n/a	n/a	n/a	n/a	n/a	n/a
1420.095	1	10	1426	1426	1	0	0	1	0.5	0.39504	0.4	0.19504	36
1421.4906	1	20	n/a	n/a	1	n/a	n/a	n/a	n/a	n/a	n/a	n/a	n/a
1423.1768	1	80	n/a	n/a	1	n/a	n/a	n/a	n/a	n/a	n/a	n/a	n/a
1423.2738	1	80	n/a	n/a	1	n/a	n/a	n/a	n/a	n/a	n/a	n/a	n/a
1423.4706	1	31	n/a	n/a	1	n/a	n/a	n/a	n/a	n/a	n/a	n/a	n/a
1425.4354	1	40	n/a	n/a	1	n/a	n/a	n/a	n/a	n/a	n/a	n/a	n/a
1427.4006	1	10	1670.3	1670.3	1	0	0	1	0.8	0.080364	0.1	0.0625	37
1429.0414	1	20	n/a	n/a	1	n/a	n/a	n/a	n/a	n/a	n/a	n/a	n/a
1430.867	1	80	n/a	n/a	1	n/a	n/a	n/a	n/a	n/a	n/a	n/a	n/a
1430.964	1	80	n/a	n/a	1	n/a	n/a	n/a	n/a	n/a	n/a	n/a	n/a
1431.1696	1	31	n/a	n/a	1	n/a	n/a	n/a	n/a	n/a	n/a	n/a	n/a
1433.1332	1	40	n/a	n/a	1	n/a	n/a	n/a	n/a	n/a	n/a	n/a	n/a
1435.097	1	10	1274.6	1274.6	1	0	0	1	0.5	0.81776	0.1	0.025	38
1436.3472	1	20	n/a	n/a	1	n/a	n/a	n/a	n/a	n/a	n/a	n/a	n/a
1437.7992	1	80	n/a	n/a	1	n/a	n/a	n/a	n/a	n/a	n/a	n/a	n/a
1437.8968	1	80	n/a	n/a	1	n/a	n/a	n/a	n/a	n/a	n/a	n/a	n/a
1438.1004	1	30	n/a	n/a	1	n/a	n/a	n/a	n/a	n/a	n/a	n/a	n/a
1440.0644	1	40	n/a	n/a	1	n/a	n/a	n/a	n/a	n/a	n/a	n/a	n/a
1442.0288	1	10	1838.2	1838.2	1	0	0	1	0.8	0.1778	0.9	0.9375	39
1443.8316	1	20	n/a	n/a	1	n/a	n/a	n/a	n/a	n/a	n/a	n/a	n/a
1444.8798	1	80	n/a	n/a	1	n/a	n/a	n/a	n/a	n/a	n/a	n/a	n/a
1444.9772	1	80	n/a	n/a	1	n/a	n/a	n/a	n/a	n/a	n/a	n/a	n/a
1445.1796	1	30	n/a	n/a	1	n/a	n/a	n/a	n/a	n/a	n/a	n/a	n/a
1447.1444	1	40	n/a	n/a	1	n/a	n/a	n/a	n/a	n/a	n/a	n/a	n/a
1449.1086	1	10	2635.8	2635.8	1	0	0	1	0.8	0.20502	0.7	0.32006	40
1451.6896	1	20	n/a	n/a	1	n/a	n/a	n/a	n/a	n/a	n/a	n/a	n/a
1453.2886	1	80	n/a	n/a	1	n/a	n/a	n/a	n/a	n/a	n/a	n/a	n/a
1453.3862	1	80	n/a	n/a	1	n/a	n/a	n/a	n/a	n/a	n/a	n/a	n/a
1453.5884	1	31	n/a	n/a	1	n/a	n/a	n/a	n/a	n/a	n/a	n/a	n/a
1455.5524	1	40	n/a	n/a	1	n/a	n/a	n/a	n/a	n/a	n/a	n/a	n/a
1497.0782	1	10	1627.6	1627.6	1	0	0	1	0	0	0.6	0.6	1
1498.67	1	20	n/a	n/a	1	n/a	n/a	n/a	n/a	n/a	n/a	n/a	n/a
1499.7436	1	80	n/a	n/a	1	n/a	n/a	n/a	n/a	n/a	n/a	n/a	n/a
1499.8414	1	80	n/a	n/a	1	n/a	n/a	n/a	n/a	n/a	n/a	n/a	n/a
1500.0502	1	30	n/a	n/a	1	n/a	n/a	n/a	n/a	n/a	n/a	n/a	n/a
1502.015	1	10	2081.1	2081.1	1	0	0	1	0	0	0.2	0.2	2
1504.0438	1	20	n/a	n/a	1	n/a	n/a	n/a	n/a	n/a	n/a	n/a	n/a
1505.4416	1	80	n/a	n/a	1	n/a	n/a	n/a	n/a	n/a	n/a	n/a	n/a
1505.5392	1	80	n/a	n/a	1	n/a	n/a	n/a	n/a	n/a	n/a	n/a	n/a
1505.7486	1	30	n/a	n/a	1	n/a	n/a	n/a	n/a	n/a	n/a	n/a	n/a
1507.7124	1	10	839.3	839.3	1	0	0	1	0	0	0.7	0.7	3
1508.5402	1	20	n/a	n/a	1	n/a	n/a	n/a	n/a	n/a	n/a	n/a	n/a
1510.3276	1	80	n/a	n/a	1	n/a	n/a	n/a	n/a	n/a	n/a	n/a	n/a
1510.4248	1	80	n/a	n/a	1	n/a	n/a	n/a	n/a	n/a	n/a	n/a	n/a
1510.6344	1	31	n/a	n/a	1	n/a	n/a	n/a	n/a	n/a	n/a	n/a	n/a
1512.5986	1	10	686.8	686.8	1	0	0	1	0	0	0.6	0.6	4
1513.28	1	20	n/a	n/a	1	n/a	n/a	n/a	n/a	n/a	n/a	n/a	n/a
1514.3806	1	80	n/a	n/a	1	n/a	n/a	n/a	n/a	n/a	n/a	n/a	n/a
1514.4782	1	80	n/a	n/a	1	n/a	n/a	n/a	n/a	n/a	n/a	n/a	n/a
1514.6756	1	30	n/a	n/a	1	n/a	n/a	n/a	n/a	n/a	n/a	n/a	n/a
1516.64	1	10	2392.9	2392.9	1	0	0	1	0	0	0.1	0.1	5
1518.9776	1	20	n/a	n/a	1	n/a	n/a	n/a	n/a	n/a	n/a	n/a	n/a
1520.616	1	80	n/a	n/a	1	n/a	n/a	n/a	n/a	n/a	n/a	n/a	n/a
1520.7138	1	80	n/a	n/a	1	n/a	n/a	n/a	n/a	n/a	n/a	n/a	n/a
1520.9258	1	30	n/a	n/a	1	n/a	n/a	n/a	n/a	n/a	n/a	n/a	n/a
1522.8906	1	10	1208.6	1208.6	1	0	0	1	0	0	0.8	0.8	6
1524.0754	1	20	n/a	n/a	1	n/a	n/a	n/a	n/a	n/a	n/a	n/a	n/a
1525.4924	1	80	n/a	n/a	1	n/a	n/a	n/a	n/a	n/a	n/a	n/a	n/a
1525.5896	1	80	n/a	n/a	1	n/a	n/a	n/a	n/a	n/a	n/a	n/a	n/a
1525.7962	1	31	n/a	n/a	1	n/a	n/a	n/a	n/a	n/a	n/a	n/a	n/a
1527.7602	1	10	864.7	864.7	1	0	0	1	0	0	0.4	0.4	7
1528.6206	1	20	n/a	n/a	1	n/a	n/a	n/a	n/a	n/a	n/a	n/a	n/a
1529.7484	1	80	n/a	n/a	1	n/a	n/a	n/a	n/a	n/a	n/a	n/a	n/a
1529.8456	1	80	n/a	n/a	1	n/a	n/a	n/a	n/a	n/a	n/a	n/a	n/a
1530.0488	1	31	n/a	n/a	1	n/a	n/a	n/a	n/a	n/a	n/a	n/a	n/a
1532.0128	1	10	1778.2	1778.2	1	0	0	1	0	0	0.2	0.2	8
1533.7498	1	20	n/a	n/a	1	n/a	n/a	n/a	n/a	n/a	n/a	n/a	n/a
1534.7956	1	80	n/a	n/a	1	n/a	n/a	n/a	n/a	n/a	n/a	n/a	n/a
1534.8932	1	80	n/a	n/a	1	n/a	n/a	n/a	n/a	n/a	n/a	n/a	n/a
1535.0972	1	30	n/a	n/a	1	n/a	n/a	n/a	n/a	n/a	n/a	n/a	n/a
1537.0618	1	10	1635.1	1635.1	1	0	0	1	0	0	0.5	0.5	9
1538.6696	1	20	n/a	n/a	1	n/a	n/a	n/a	n/a	n/a	n/a	n/a	n/a
1539.9876	1	80	n/a	n/a	1	n/a	n/a	n/a	n/a	n/a	n/a	n/a	n/a
1540.0848	1	80	n/a	n/a	1	n/a	n/a	n/a	n/a	n/a	n/a	n/a	n/a
1540.2934	1	31	n/a	n/a	1	n/a	n/a	n/a	n/a	n/a	n/a	n/a	n/a
1542.2574	1	10	1181.9	1181.9	1	0	0	1	0	0	0.8	0.8	10
1543.4262	1	20	n/a	n/a	1	n/a	n/a	n/a	n/a	n/a	n/a	n/a	n/a
1544.9574	1	80	n/a	n/a	1	n/a	n/a	n/a	n/a	n/a	n/a	n/a	n/a
1545.0544	1	80	n/a	n/a	1	n/a	n/a	n/a	n/a	n/a	n/a	n/a	n/a
1545.2602	1	31	n/a	n/a	1	n/a	n/a	n/a	n/a	n/a	n/a	n/a	n/a
1556.0068	1	10	1769.8	1769.8	1	0	0	1	0.6	0.23509	0.8	0.85264	11
1557.7446	1	20	n/a	n/a	1	n/a	n/a	n/a	n/a	n/a	n/a	n/a	n/a
1559.5004	1	80	n/a	n/a	1	n/a	n/a	n/a	n/a	n/a	n/a	n/a	n/a
1559.5974	1	80	n/a	n/a	1	n/a	n/a	n/a	n/a	n/a	n/a	n/a	n/a
1559.8066	1	31	n/a	n/a	1	n/a	n/a	n/a	n/a	n/a	n/a	n/a	n/a
1561.7704	1	40	n/a	n/a	1	n/a	n/a	n/a	n/a	n/a	n/a	n/a	n/a
1563.7348	1	10	4732.7	4732.7	1	0	0	1	0.6	0.07541	0.1	0.03125	12
1568.3604	1	20	n/a	n/a	1	n/a	n/a	n/a	n/a	n/a	n/a	n/a	n/a
1569.546	1	80	n/a	n/a	1	n/a	n/a	n/a	n/a	n/a	n/a	n/a	n/a
1569.6436	1	80	n/a	n/a	1	n/a	n/a	n/a	n/a	n/a	n/a	n/a	n/a
1569.854	1	31	n/a	n/a	1	n/a	n/a	n/a	n/a	n/a	n/a	n/a	n/a
1571.8186	1	40	n/a	n/a	1	n/a	n/a	n/a	n/a	n/a	n/a	n/a	n/a
1573.7838	1	10	1856.5	1856.5	1	0	0	1	0.8	0.51895	0.5	0.57578	13
1575.6014	1	20	n/a	n/a	1	n/a	n/a	n/a	n/a	n/a	n/a	n/a	n/a
1577.3484	1	80	n/a	n/a	1	n/a	n/a	n/a	n/a	n/a	n/a	n/a	n/a
1577.446	1	80	n/a	n/a	1	n/a	n/a	n/a	n/a	n/a	n/a	n/a	n/a
1577.6476	1	30	n/a	n/a	1	n/a	n/a	n/a	n/a	n/a	n/a	n/a	n/a
1579.6122	1	40	n/a	n/a	1	n/a	n/a	n/a	n/a	n/a	n/a	n/a	n/a
1581.576	1	10	3600.7	3600.7	1	0	0	1	0.7	0.90547	0.1	0.11277	14
1585.0982	1	20	n/a	n/a	1	n/a	n/a	n/a	n/a	n/a	n/a	n/a	n/a
1586.427	1	80	n/a	n/a	1	n/a	n/a	n/a	n/a	n/a	n/a	n/a	n/a
1586.5246	1	80	n/a	n/a	1	n/a	n/a	n/a	n/a	n/a	n/a	n/a	n/a
1586.7218	1	30	n/a	n/a	1	n/a	n/a	n/a	n/a	n/a	n/a	n/a	n/a
1588.6862	1	40	n/a	n/a	1	n/a	n/a	n/a	n/a	n/a	n/a	n/a	n/a
1590.65	1	10	3964.3	3964.3	1	0	0	1	0.6	0.97612	0.1	0.21418	15
1594.5154	1	20	n/a	n/a	1	n/a	n/a	n/a	n/a	n/a	n/a	n/a	n/a
1596.1686	1	80	n/a	n/a	1	n/a	n/a	n/a	n/a	n/a	n/a	n/a	n/a
1596.2662	1	80	n/a	n/a	1	n/a	n/a	n/a	n/a	n/a	n/a	n/a	n/a
1596.4632	1	31	n/a	n/a	1	n/a	n/a	n/a	n/a	n/a	n/a	n/a	n/a
1598.4274	1	40	n/a	n/a	1	n/a	n/a	n/a	n/a	n/a	n/a	n/a	n/a
1600.3918	1	10	2204.7	2204.7	1	0	0	1	0.8	0.090459	0.8	0.36184	16
1602.5506	1	20	n/a	n/a	1	n/a	n/a	n/a	n/a	n/a	n/a	n/a	n/a
1603.8938	1	80	n/a	n/a	1	n/a	n/a	n/a	n/a	n/a	n/a	n/a	n/a
1603.9914	1	80	n/a	n/a	1	n/a	n/a	n/a	n/a	n/a	n/a	n/a	n/a
1604.1902	1	31	n/a	n/a	1	n/a	n/a	n/a	n/a	n/a	n/a	n/a	n/a
1606.1542	1	40	n/a	n/a	1	n/a	n/a	n/a	n/a	n/a	n/a	n/a	n/a
1608.1184	1	10	1759.7	1759.7	1	0	0	1	0.8	0.44557	0.5	0.28227	17
1609.8396	1	20	n/a	n/a	1	n/a	n/a	n/a	n/a	n/a	n/a	n/a	n/a
1611.4796	1	80	n/a	n/a	1	n/a	n/a	n/a	n/a	n/a	n/a	n/a	n/a
1611.577	1	80	n/a	n/a	1	n/a	n/a	n/a	n/a	n/a	n/a	n/a	n/a
1611.7882	1	31	n/a	n/a	1	n/a	n/a	n/a	n/a	n/a	n/a	n/a	n/a
1613.7522	1	40	n/a	n/a	1	n/a	n/a	n/a	n/a	n/a	n/a	n/a	n/a
1615.7164	1	10	2952	2952	1	0	0	1	0.4	0.87303	0.1	0.082023	18
1618.6056	1	20	n/a	n/a	1	n/a	n/a	n/a	n/a	n/a	n/a	n/a	n/a
1619.9556	1	80	n/a	n/a	1	n/a	n/a	n/a	n/a	n/a	n/a	n/a	n/a
1620.0532	1	80	n/a	n/a	1	n/a	n/a	n/a	n/a	n/a	n/a	n/a	n/a
1620.261	1	31	n/a	n/a	1	n/a	n/a	n/a	n/a	n/a	n/a	n/a	n/a
1622.2254	1	40	n/a	n/a	1	n/a	n/a	n/a	n/a	n/a	n/a	n/a	n/a
1624.1896	1	10	940.3	940.3	1	0	0	1	0.4	0.54256	0.7	0.86171	19
1625.1144	1	20	n/a	n/a	1	n/a	n/a	n/a	n/a	n/a	n/a	n/a	n/a
1626.7474	1	80	n/a	n/a	1	n/a	n/a	n/a	n/a	n/a	n/a	n/a	n/a
1626.8446	1	80	n/a	n/a	1	n/a	n/a	n/a	n/a	n/a	n/a	n/a	n/a
1627.0464	1	31	n/a	n/a	1	n/a	n/a	n/a	n/a	n/a	n/a	n/a	n/a
1629.011	1	40	n/a	n/a	1	n/a	n/a	n/a	n/a	n/a	n/a	n/a	n/a
1630.9754	1	10	2053.9	2053.9	1	0	0	1	0.6	0.29286	0.8	0.93928	20
1632.9886	1	20	n/a	n/a	1	n/a	n/a	n/a	n/a	n/a	n/a	n/a	n/a
1634.3954	1	80	n/a	n/a	1	n/a	n/a	n/a	n/a	n/a	n/a	n/a	n/a
1634.4926	1	80	n/a	n/a	1	n/a	n/a	n/a	n/a	n/a	n/a	n/a	n/a
1634.693	1	30	n/a	n/a	1	n/a	n/a	n/a	n/a	n/a	n/a	n/a	n/a
1636.6574	1	40	n/a	n/a	1	n/a	n/a	n/a	n/a	n/a	n/a	n/a	n/a
1647.4048	1	10	1411.8	1411.8	1	0	0	1	0	0	0.1	0.1	21
1648.786	1	20	n/a	n/a	1	n/a	n/a	n/a	n/a	n/a	n/a	n/a	n/a
1650.475	1	80	n/a	n/a	1	n/a	n/a	n/a	n/a	n/a	n/a	n/a	n/a
1650.5726	1	80	n/a	n/a	1	n/a	n/a	n/a	n/a	n/a	n/a	n/a	n/a
1650.7832	1	31	n/a	n/a	1	n/a	n/a	n/a	n/a	n/a	n/a	n/a	n/a
1652.7472	1	10	1896.7	1896.7	1	0	0	1	0	0	0.1	0.1	22
1654.5978	1	20	n/a	n/a	1	n/a	n/a	n/a	n/a	n/a	n/a	n/a	n/a
1656.3158	1	80	n/a	n/a	1	n/a	n/a	n/a	n/a	n/a	n/a	n/a	n/a
1656.4134	1	80	n/a	n/a	1	n/a	n/a	n/a	n/a	n/a	n/a	n/a	n/a
1656.6106	1	31	n/a	n/a	1	n/a	n/a	n/a	n/a	n/a	n/a	n/a	n/a
1658.5748	1	10	1561.5	1561.5	1	0	0	1	0	0	0.9	0.9	23
1660.1002	1	20	n/a	n/a	1	n/a	n/a	n/a	n/a	n/a	n/a	n/a	n/a
1661.5116	1	80	n/a	n/a	1	n/a	n/a	n/a	n/a	n/a	n/a	n/a	n/a
1661.609	1	80	n/a	n/a	1	n/a	n/a	n/a	n/a	n/a	n/a	n/a	n/a
1661.8206	1	31	n/a	n/a	1	n/a	n/a	n/a	n/a	n/a	n/a	n/a	n/a
1663.7854	1	10	3459.8	3459.8	1	0	0	1	0	0	0.6	0.6	24
1667.1628	1	20	n/a	n/a	1	n/a	n/a	n/a	n/a	n/a	n/a	n/a	n/a
1668.2612	1	80	n/a	n/a	1	n/a	n/a	n/a	n/a	n/a	n/a	n/a	n/a
1668.3588	1	80	n/a	n/a	1	n/a	n/a	n/a	n/a	n/a	n/a	n/a	n/a
1668.5596	1	30	n/a	n/a	1	n/a	n/a	n/a	n/a	n/a	n/a	n/a	n/a
1670.5234	1	10	1791.4	1791.4	1	0	0	1	0	0	0.4	0.4	25
1672.2768	1	20	n/a	n/a	1	n/a	n/a	n/a	n/a	n/a	n/a	n/a	n/a
1674.1634	1	80	n/a	n/a	1	n/a	n/a	n/a	n/a	n/a	n/a	n/a	n/a
1674.2608	1	80	n/a	n/a	1	n/a	n/a	n/a	n/a	n/a	n/a	n/a	n/a
1674.468	1	31	n/a	n/a	1	n/a	n/a	n/a	n/a	n/a	n/a	n/a	n/a
1676.4322	1	10	1484.9	1484.9	1	0	0	1	0	0	0.7	0.7	26
1677.8928	1	20	n/a	n/a	1	n/a	n/a	n/a	n/a	n/a	n/a	n/a	n/a
1679.7842	1	80	n/a	n/a	1	n/a	n/a	n/a	n/a	n/a	n/a	n/a	n/a
1679.8818	1	80	n/a	n/a	1	n/a	n/a	n/a	n/a	n/a	n/a	n/a	n/a
1680.0842	1	31	n/a	n/a	1	n/a	n/a	n/a	n/a	n/a	n/a	n/a	n/a
1682.0486	1	10	1398.4	1398.4	1	0	0	1	0	0	0.2	0.2	27
1683.4286	1	20	n/a	n/a	1	n/a	n/a	n/a	n/a	n/a	n/a	n/a	n/a
1684.682	1	80	n/a	n/a	1	n/a	n/a	n/a	n/a	n/a	n/a	n/a	n/a
1684.7796	1	80	n/a	n/a	1	n/a	n/a	n/a	n/a	n/a	n/a	n/a	n/a
1684.987	1	31	n/a	n/a	1	n/a	n/a	n/a	n/a	n/a	n/a	n/a	n/a
1686.9518	1	10	1549.3	1549.3	1	0	0	1	0	0	0.3	0.3	28
1688.4774	1	20	n/a	n/a	1	n/a	n/a	n/a	n/a	n/a	n/a	n/a	n/a
1690.3572	1	80	n/a	n/a	1	n/a	n/a	n/a	n/a	n/a	n/a	n/a	n/a
1690.4548	1	80	n/a	n/a	1	n/a	n/a	n/a	n/a	n/a	n/a	n/a	n/a
1690.6526	1	30	n/a	n/a	1	n/a	n/a	n/a	n/a	n/a	n/a	n/a	n/a
1692.6168	1	10	1028.9	1028.9	1	0	0	1	0	0	0.9	0.9	29
1693.6232	1	20	n/a	n/a	1	n/a	n/a	n/a	n/a	n/a	n/a	n/a	n/a
1694.9334	1	80	n/a	n/a	1	n/a	n/a	n/a	n/a	n/a	n/a	n/a	n/a
1695.0304	1	80	n/a	n/a	1	n/a	n/a	n/a	n/a	n/a	n/a	n/a	n/a
1695.23	1	31	n/a	n/a	1	n/a	n/a	n/a	n/a	n/a	n/a	n/a	n/a
1697.1938	1	10	969	969	1	0	0	1	0	0	0.9	0.9	30
1698.152	1	20	n/a	n/a	1	n/a	n/a	n/a	n/a	n/a	n/a	n/a	n/a
1699.4914	1	80	n/a	n/a	1	n/a	n/a	n/a	n/a	n/a	n/a	n/a	n/a
1699.589	1	80	n/a	n/a	1	n/a	n/a	n/a	n/a	n/a	n/a	n/a	n/a
1699.7918	1	31	n/a	n/a	1	n/a	n/a	n/a	n/a	n/a	n/a	n/a	n/a
1710.5402	1	10	2277.5	2277.5	1	0	0	1	0.5	0.27521	0.6	0.47521	31
1712.764	1	20	n/a	n/a	1	n/a	n/a	n/a	n/a	n/a	n/a	n/a	n/a
1714.4082	1	80	n/a	n/a	1	n/a	n/a	n/a	n/a	n/a	n/a	n/a	n/a
1714.505	1	80	n/a	n/a	1	n/a	n/a	n/a	n/a	n/a	n/a	n/a	n/a
1714.7116	1	30	n/a	n/a	1	n/a	n/a	n/a	n/a	n/a	n/a	n/a	n/a
1716.6754	1	40	n/a	n/a	1	n/a	n/a	n/a	n/a	n/a	n/a	n/a	n/a
1718.6404	1	10	2857.1	2857.1	1	0	0	1	0.8	0.074718	0.6	0.0625	32
1721.4332	1	20	n/a	n/a	1	n/a	n/a	n/a	n/a	n/a	n/a	n/a	n/a
1722.9846	1	80	n/a	n/a	1	n/a	n/a	n/a	n/a	n/a	n/a	n/a	n/a
1723.0822	1	80	n/a	n/a	1	n/a	n/a	n/a	n/a	n/a	n/a	n/a	n/a
1723.284	1	30	n/a	n/a	1	n/a	n/a	n/a	n/a	n/a	n/a	n/a	n/a
1725.2478	1	40	n/a	n/a	1	n/a	n/a	n/a	n/a	n/a	n/a	n/a	n/a
1727.2122	1	10	1561.4	1561.4	1	0	0	1	0.5	0.79827	0.3	0.39827	33
1728.7382	1	20	n/a	n/a	1	n/a	n/a	n/a	n/a	n/a	n/a	n/a	n/a
1730.6228	1	80	n/a	n/a	1	n/a	n/a	n/a	n/a	n/a	n/a	n/a	n/a
1730.7202	1	80	n/a	n/a	1	n/a	n/a	n/a	n/a	n/a	n/a	n/a	n/a
1730.9296	1	31	n/a	n/a	1	n/a	n/a	n/a	n/a	n/a	n/a	n/a	n/a
1732.8934	1	40	n/a	n/a	1	n/a	n/a	n/a	n/a	n/a	n/a	n/a	n/a
1734.858	1	10	2335.7	2335.7	1	0	0	1	0.4	0.19615	0.9	0.9641	34
1737.1468	1	20	n/a	n/a	1	n/a	n/a	n/a	n/a	n/a	n/a	n/a	n/a
1738.3444	1	80	n/a	n/a	1	n/a	n/a	n/a	n/a	n/a	n/a	n/a	n/a
1738.442	1	80	n/a	n/a	1	n/a	n/a	n/a	n/a	n/a	n/a	n/a	n/a
1738.641	1	31	n/a	n/a	1	n/a	n/a	n/a	n/a	n/a	n/a	n/a	n/a
1740.6056	1	40	n/a	n/a	1	n/a	n/a	n/a	n/a	n/a	n/a	n/a	n/a
1742.5698	1	10	915.3	915.3	1	0	0	1	0.7	0.27758	0.7	0.64769	35
1743.4786	1	20	n/a	n/a	1	n/a	n/a	n/a	n/a	n/a	n/a	n/a	n/a
1744.7388	1	80	n/a	n/a	1	n/a	n/a	n/a	n/a	n/a	n/a	n/a	n/a
1744.8364	1	80	n/a	n/a	1	n/a	n/a	n/a	n/a	n/a	n/a	n/a	n/a
1745.0368	1	31	n/a	n/a	1	n/a	n/a	n/a	n/a	n/a	n/a	n/a	n/a
1747.001	1	40	n/a	n/a	1	n/a	n/a	n/a	n/a	n/a	n/a	n/a	n/a
1748.965	1	10	1868.9	1868.9	1	0	0	1	0.5	0.25054	0.4	0.050537	36
1750.799	1	20	n/a	n/a	1	n/a	n/a	n/a	n/a	n/a	n/a	n/a	n/a
1752.145	1	80	n/a	n/a	1	n/a	n/a	n/a	n/a	n/a	n/a	n/a	n/a
1752.2426	1	80	n/a	n/a	1	n/a	n/a	n/a	n/a	n/a	n/a	n/a	n/a
1752.4552	1	30	n/a	n/a	1	n/a	n/a	n/a	n/a	n/a	n/a	n/a	n/a
1754.4192	1	40	n/a	n/a	1	n/a	n/a	n/a	n/a	n/a	n/a	n/a	n/a
1756.3846	1	10	1292.6	1292.6	1	0	0	1	0.7	0.94981	0.2	0.54956	37
1757.6512	1	20	n/a	n/a	1	n/a	n/a	n/a	n/a	n/a	n/a	n/a	n/a
1759.455	1	80	n/a	n/a	1	n/a	n/a	n/a	n/a	n/a	n/a	n/a	n/a
1759.5526	1	80	n/a	n/a	1	n/a	n/a	n/a	n/a	n/a	n/a	n/a	n/a
1759.7616	1	31	n/a	n/a	1	n/a	n/a	n/a	n/a	n/a	n/a	n/a	n/a
1761.726	1	40	n/a	n/a	1	n/a	n/a	n/a	n/a	n/a	n/a	n/a	n/a
1763.6898	1	10	2544.8	2544.8	1	0	0	1	0.5	0.76665	0.3	0.36665	38
1766.173	1	20	n/a	n/a	1	n/a	n/a	n/a	n/a	n/a	n/a	n/a	n/a
1767.8426	1	80	n/a	n/a	1	n/a	n/a	n/a	n/a	n/a	n/a	n/a	n/a
1767.9402	1	80	n/a	n/a	1	n/a	n/a	n/a	n/a	n/a	n/a	n/a	n/a
1768.1374	1	31	n/a	n/a	1	n/a	n/a	n/a	n/a	n/a	n/a	n/a	n/a
1770.1014	1	40	n/a	n/a	1	n/a	n/a	n/a	n/a	n/a	n/a	n/a	n/a
1772.0654	1	10	633.2	633.2	1	0	0	1	0.6	0.79461	0.3	0.44192	39
1772.6988	1	20	n/a	n/a	1	n/a	n/a	n/a	n/a	n/a	n/a	n/a	n/a
1774.3426	1	80	n/a	n/a	1	n/a	n/a	n/a	n/a	n/a	n/a	n/a	n/a
1774.4404	1	80	n/a	n/a	1	n/a	n/a	n/a	n/a	n/a	n/a	n/a	n/a
1774.648	1	30	n/a	n/a	1	n/a	n/a	n/a	n/a	n/a	n/a	n/a	n/a
1776.6128	1	40	n/a	n/a	1	n/a	n/a	n/a	n/a	n/a	n/a	n/a	n/a
1778.5776	1	10	1278.1	1278.1	1	0	0	1	0.7	0.93537	0.3	0.8492	40
1779.8268	1	20	n/a	n/a	1	n/a	n/a	n/a	n/a	n/a	n/a	n/a	n/a
1781.6536	1	80	n/a	n/a	1	n/a	n/a	n/a	n/a	n/a	n/a	n/a	n/a
1781.7506	1	80	n/a	n/a	1	n/a	n/a	n/a	n/a	n/a	n/a	n/a	n/a
1781.9536	1	31	n/a	n/a	1	n/a	n/a	n/a	n/a	n/a	n/a	n/a	n/a
1783.9174	1	40	n/a	n/a	1	n/a	n/a	n/a	n/a	n/a	n/a	n/a	n/a
1854.627	1	10	879.9	879.9	1	0	1	0	0	0	0.4	0.4	1
1855.4878	1	20	n/a	n/a	1	n/a	n/a	n/a	n/a	n/a	n/a	n/a	n/a
1856.5244	1	80	n/a	n/a	1	n/a	n/a	n/a	n/a	n/a	n/a	n/a	n/a
1856.6218	1	80	n/a	n/a	1	n/a	n/a	n/a	n/a	n/a	n/a	n/a	n/a
1856.8192	1	31	n/a	n/a	1	n/a	n/a	n/a	n/a	n/a	n/a	n/a	n/a
1858.7838	1	10	1109.5	1109.5	1	0	1	0	0	0	0.5	0.5	2
1859.8716	1	20	n/a	n/a	1	n/a	n/a	n/a	n/a	n/a	n/a	n/a	n/a
1861.1326	1	80	n/a	n/a	1	n/a	n/a	n/a	n/a	n/a	n/a	n/a	n/a
1861.2296	1	80	n/a	n/a	1	n/a	n/a	n/a	n/a	n/a	n/a	n/a	n/a
1861.4302	1	30	n/a	n/a	1	n/a	n/a	n/a	n/a	n/a	n/a	n/a	n/a
1863.3944	1	10	1448.3	1448.3	1	0	1	0	0	0	0.1	0.1	3
1864.8226	1	20	n/a	n/a	1	n/a	n/a	n/a	n/a	n/a	n/a	n/a	n/a
1866.7404	1	80	n/a	n/a	1	n/a	n/a	n/a	n/a	n/a	n/a	n/a	n/a
1866.8376	1	80	n/a	n/a	1	n/a	n/a	n/a	n/a	n/a	n/a	n/a	n/a
1867.0466	1	31	n/a	n/a	1	n/a	n/a	n/a	n/a	n/a	n/a	n/a	n/a
1869.0108	1	10	2193.8	2193.8	1	0	1	0	0	0	0.5	0.5	4
1871.153	1	20	n/a	n/a	1	n/a	n/a	n/a	n/a	n/a	n/a	n/a	n/a
1872.777	1	80	n/a	n/a	1	n/a	n/a	n/a	n/a	n/a	n/a	n/a	n/a
1872.8746	1	80	n/a	n/a	1	n/a	n/a	n/a	n/a	n/a	n/a	n/a	n/a
1873.0852	1	31	n/a	n/a	1	n/a	n/a	n/a	n/a	n/a	n/a	n/a	n/a
1875.0494	1	10	1530.1	1530.1	1	0	1	0	0	0	0.2	0.2	5
1876.5436	1	20	n/a	n/a	1	n/a	n/a	n/a	n/a	n/a	n/a	n/a	n/a
1877.5448	1	80	n/a	n/a	1	n/a	n/a	n/a	n/a	n/a	n/a	n/a	n/a
1877.6418	1	80	n/a	n/a	1	n/a	n/a	n/a	n/a	n/a	n/a	n/a	n/a
1877.8428	1	31	n/a	n/a	1	n/a	n/a	n/a	n/a	n/a	n/a	n/a	n/a
1879.8072	1	10	1782.9	1782.9	1	0	1	0	0	0	0.3	0.3	6
1881.56	1	20	n/a	n/a	1	n/a	n/a	n/a	n/a	n/a	n/a	n/a	n/a
1883.017	1	80	n/a	n/a	1	n/a	n/a	n/a	n/a	n/a	n/a	n/a	n/a
1883.1144	1	80	n/a	n/a	1	n/a	n/a	n/a	n/a	n/a	n/a	n/a	n/a
1883.3128	1	31	n/a	n/a	1	n/a	n/a	n/a	n/a	n/a	n/a	n/a	n/a
1885.2772	1	10	2166.4	2166.4	1	0	1	0	0	0	0.2	0.2	7
1887.4034	1	20	n/a	n/a	1	n/a	n/a	n/a	n/a	n/a	n/a	n/a	n/a
1888.5014	1	80	n/a	n/a	1	n/a	n/a	n/a	n/a	n/a	n/a	n/a	n/a
1888.5986	1	80	n/a	n/a	1	n/a	n/a	n/a	n/a	n/a	n/a	n/a	n/a
1888.7994	1	31	n/a	n/a	1	n/a	n/a	n/a	n/a	n/a	n/a	n/a	n/a
1890.7634	1	10	1797.2	1797.2	1	0	1	0	0	0	0.1	0.1	8
1892.5172	1	20	n/a	n/a	1	n/a	n/a	n/a	n/a	n/a	n/a	n/a	n/a
1894.297	1	80	n/a	n/a	1	n/a	n/a	n/a	n/a	n/a	n/a	n/a	n/a
1894.3946	1	80	n/a	n/a	1	n/a	n/a	n/a	n/a	n/a	n/a	n/a	n/a
1894.5962	1	31	n/a	n/a	1	n/a	n/a	n/a	n/a	n/a	n/a	n/a	n/a
1896.5608	1	10	2423.5	2423.5	1	0	1	0	0	0	0.3	0.3	9
1898.9308	1	20	n/a	n/a	1	n/a	n/a	n/a	n/a	n/a	n/a	n/a	n/a
1899.9334	1	80	n/a	n/a	1	n/a	n/a	n/a	n/a	n/a	n/a	n/a	n/a
1900.031	1	80	n/a	n/a	1	n/a	n/a	n/a	n/a	n/a	n/a	n/a	n/a
1900.23	1	31	n/a	n/a	1	n/a	n/a	n/a	n/a	n/a	n/a	n/a	n/a
1902.194	1	10	928.4	928.4	1	0	1	0	0	0	0.2	0.2	10
1903.103	1	20	n/a	n/a	1	n/a	n/a	n/a	n/a	n/a	n/a	n/a	n/a
1904.773	1	80	n/a	n/a	1	n/a	n/a	n/a	n/a	n/a	n/a	n/a	n/a
1904.8706	1	80	n/a	n/a	1	n/a	n/a	n/a	n/a	n/a	n/a	n/a	n/a
1905.067	1	31	n/a	n/a	1	n/a	n/a	n/a	n/a	n/a	n/a	n/a	n/a
1915.8142	1	10	1713.5	1713.5	1	0	1	0	0.4	0.74569	0.3	0.33046	11
1917.4864	1	20	n/a	n/a	1	n/a	n/a	n/a	n/a	n/a	n/a	n/a	n/a
1918.9996	1	80	n/a	n/a	1	n/a	n/a	n/a	n/a	n/a	n/a	n/a	n/a
1919.0972	1	80	n/a	n/a	1	n/a	n/a	n/a	n/a	n/a	n/a	n/a	n/a
1919.3042	1	31	n/a	n/a	1	n/a	n/a	n/a	n/a	n/a	n/a	n/a	n/a
1921.268	1	40	n/a	n/a	1	n/a	n/a	n/a	n/a	n/a	n/a	n/a	n/a
1923.2324	1	10	961.2	961.2	1	0	1	0	0.4	0.022677	0.6	0.34845	12
1924.1738	1	20	n/a	n/a	1	n/a	n/a	n/a	n/a	n/a	n/a	n/a	n/a
1925.4916	1	80	n/a	n/a	1	n/a	n/a	n/a	n/a	n/a	n/a	n/a	n/a
1925.5892	1	80	n/a	n/a	1	n/a	n/a	n/a	n/a	n/a	n/a	n/a	n/a
1925.7968	1	31	n/a	n/a	1	n/a	n/a	n/a	n/a	n/a	n/a	n/a	n/a
1927.7616	1	40	n/a	n/a	1	n/a	n/a	n/a	n/a	n/a	n/a	n/a	n/a
1929.7254	1	10	1686.7	1686.7	1	0	1	0	0.6	0.97428	0.2	0.46141	13
1931.3822	1	20	n/a	n/a	1	n/a	n/a	n/a	n/a	n/a	n/a	n/a	n/a
1933.0874	1	80	n/a	n/a	1	n/a	n/a	n/a	n/a	n/a	n/a	n/a	n/a
1933.1848	1	80	n/a	n/a	1	n/a	n/a	n/a	n/a	n/a	n/a	n/a	n/a
1933.395	1	30	n/a	n/a	1	n/a	n/a	n/a	n/a	n/a	n/a	n/a	n/a
1935.3588	1	40	n/a	n/a	1	n/a	n/a	n/a	n/a	n/a	n/a	n/a	n/a
1937.3232	1	10	1471	1471	1	0	1	0	0.6	0.59803	0.6	0.89704	14
1938.7678	1	20	n/a	n/a	1	n/a	n/a	n/a	n/a	n/a	n/a	n/a	n/a
1940.0074	1	80	n/a	n/a	1	n/a	n/a	n/a	n/a	n/a	n/a	n/a	n/a
1940.105	1	80	n/a	n/a	1	n/a	n/a	n/a	n/a	n/a	n/a	n/a	n/a
1940.3094	1	31	n/a	n/a	1	n/a	n/a	n/a	n/a	n/a	n/a	n/a	n/a
1942.2736	1	40	n/a	n/a	1	n/a	n/a	n/a	n/a	n/a	n/a	n/a	n/a
1944.238	1	10	1235.2	1235.2	1	0	1	0	0.4	0.44753	0.7	0.79835	15
1945.4554	1	20	n/a	n/a	1	n/a	n/a	n/a	n/a	n/a	n/a	n/a	n/a
1947.3492	1	80	n/a	n/a	1	n/a	n/a	n/a	n/a	n/a	n/a	n/a	n/a
1947.4464	1	80	n/a	n/a	1	n/a	n/a	n/a	n/a	n/a	n/a	n/a	n/a
1947.6478	1	30	n/a	n/a	1	n/a	n/a	n/a	n/a	n/a	n/a	n/a	n/a
1949.6124	1	40	n/a	n/a	1	n/a	n/a	n/a	n/a	n/a	n/a	n/a	n/a
1951.5786	1	10	2278.2	2278.2	1	0	1	0	0.5	0.85713	0.1	0.057128	16
1953.8018	1	20	n/a	n/a	1	n/a	n/a	n/a	n/a	n/a	n/a	n/a	n/a
1955.5282	1	80	n/a	n/a	1	n/a	n/a	n/a	n/a	n/a	n/a	n/a	n/a
1955.6252	1	80	n/a	n/a	1	n/a	n/a	n/a	n/a	n/a	n/a	n/a	n/a
1955.831	1	30	n/a	n/a	1	n/a	n/a	n/a	n/a	n/a	n/a	n/a	n/a
1957.7952	1	40	n/a	n/a	1	n/a	n/a	n/a	n/a	n/a	n/a	n/a	n/a
1959.7592	1	10	1926.5	1926.5	1	0	1	0	0.4	0.65436	0.3	0.26957	17
1961.6422	1	20	n/a	n/a	1	n/a	n/a	n/a	n/a	n/a	n/a	n/a	n/a
1963.0168	1	80	n/a	n/a	1	n/a	n/a	n/a	n/a	n/a	n/a	n/a	n/a
1963.114	1	80	n/a	n/a	1	n/a	n/a	n/a	n/a	n/a	n/a	n/a	n/a
1963.3146	1	31	n/a	n/a	1	n/a	n/a	n/a	n/a	n/a	n/a	n/a	n/a
1965.279	1	40	n/a	n/a	1	n/a	n/a	n/a	n/a	n/a	n/a	n/a	n/a
1967.2444	1	10	1923.4	1923.4	1	0	1	0	0.7	0.070287	0.8	0.49734	18
1969.1274	1	20	n/a	n/a	1	n/a	n/a	n/a	n/a	n/a	n/a	n/a	n/a
1970.7556	1	80	n/a	n/a	1	n/a	n/a	n/a	n/a	n/a	n/a	n/a	n/a
1970.8532	1	80	n/a	n/a	1	n/a	n/a	n/a	n/a	n/a	n/a	n/a	n/a
1971.0594	1	30	n/a	n/a	1	n/a	n/a	n/a	n/a	n/a	n/a	n/a	n/a
1973.0232	1	40	n/a	n/a	1	n/a	n/a	n/a	n/a	n/a	n/a	n/a	n/a
1974.9874	1	10	3717.7	3717.7	1	0	1	0	0.5	0.53401	0.1	0.025	19
1978.6236	1	20	n/a	n/a	1	n/a	n/a	n/a	n/a	n/a	n/a	n/a	n/a
1979.6304	1	80	n/a	n/a	1	n/a	n/a	n/a	n/a	n/a	n/a	n/a	n/a
1979.7276	1	80	n/a	n/a	1	n/a	n/a	n/a	n/a	n/a	n/a	n/a	n/a
1979.938	1	31	n/a	n/a	1	n/a	n/a	n/a	n/a	n/a	n/a	n/a	n/a
1981.9026	1	40	n/a	n/a	1	n/a	n/a	n/a	n/a	n/a	n/a	n/a	n/a
1983.8668	1	10	1929.4	1929.4	1	0	1	0	0.7	0.3885	0.9	0.95833	20
1985.7502	1	20	n/a	n/a	1	n/a	n/a	n/a	n/a	n/a	n/a	n/a	n/a
1987.6192	1	80	n/a	n/a	1	n/a	n/a	n/a	n/a	n/a	n/a	n/a	n/a
1987.7164	1	80	n/a	n/a	1	n/a	n/a	n/a	n/a	n/a	n/a	n/a	n/a
1987.9266	1	30	n/a	n/a	1	n/a	n/a	n/a	n/a	n/a	n/a	n/a	n/a
1989.8908	1	40	n/a	n/a	1	n/a	n/a	n/a	n/a	n/a	n/a	n/a	n/a
2000.636	1	10	745.4	745.4	1	0	1	0	0	0	0.2	0.2	21
2001.367	1	20	n/a	n/a	1	n/a	n/a	n/a	n/a	n/a	n/a	n/a	n/a
2002.4078	1	80	n/a	n/a	1	n/a	n/a	n/a	n/a	n/a	n/a	n/a	n/a
2002.5056	1	80	n/a	n/a	1	n/a	n/a	n/a	n/a	n/a	n/a	n/a	n/a
2002.7152	1	31	n/a	n/a	1	n/a	n/a	n/a	n/a	n/a	n/a	n/a	n/a
2004.6798	1	10	659.5	659.5	1	0	1	0	0	0	0.9	0.9	22
2005.3302	1	20	n/a	n/a	1	n/a	n/a	n/a	n/a	n/a	n/a	n/a	n/a
2006.8122	1	80	n/a	n/a	1	n/a	n/a	n/a	n/a	n/a	n/a	n/a	n/a
2006.9096	1	80	n/a	n/a	1	n/a	n/a	n/a	n/a	n/a	n/a	n/a	n/a
2007.116	1	31	n/a	n/a	1	n/a	n/a	n/a	n/a	n/a	n/a	n/a	n/a
2009.0804	1	10	879.1	879.1	1	0	1	0	0	0	0.3	0.3	23
2009.9402	1	20	n/a	n/a	1	n/a	n/a	n/a	n/a	n/a	n/a	n/a	n/a
2010.9192	1	80	n/a	n/a	1	n/a	n/a	n/a	n/a	n/a	n/a	n/a	n/a
2011.0164	1	80	n/a	n/a	1	n/a	n/a	n/a	n/a	n/a	n/a	n/a	n/a
2011.2232	1	31	n/a	n/a	1	n/a	n/a	n/a	n/a	n/a	n/a	n/a	n/a
2013.187	1	10	822.5	822.5	1	0	1	0	0	0	0.2	0.2	24
2013.9986	1	20	n/a	n/a	1	n/a	n/a	n/a	n/a	n/a	n/a	n/a	n/a
2015.0864	1	80	n/a	n/a	1	n/a	n/a	n/a	n/a	n/a	n/a	n/a	n/a
2015.1838	1	80	n/a	n/a	1	n/a	n/a	n/a	n/a	n/a	n/a	n/a	n/a
2015.394	1	31	n/a	n/a	1	n/a	n/a	n/a	n/a	n/a	n/a	n/a	n/a
2017.3584	1	10	683.4	683.4	1	0	1	0	0	0	0.1	0.1	25
2018.0406	1	20	n/a	n/a	1	n/a	n/a	n/a	n/a	n/a	n/a	n/a	n/a
2019.566	1	80	n/a	n/a	1	n/a	n/a	n/a	n/a	n/a	n/a	n/a	n/a
2019.6632	1	80	n/a	n/a	1	n/a	n/a	n/a	n/a	n/a	n/a	n/a	n/a
2019.8754	1	31	n/a	n/a	1	n/a	n/a	n/a	n/a	n/a	n/a	n/a	n/a
2021.8396	1	10	1011.5	1011.5	1	0	1	0	0	0	0.7	0.7	26
2022.8302	1	20	n/a	n/a	1	n/a	n/a	n/a	n/a	n/a	n/a	n/a	n/a
2024.6842	1	80	n/a	n/a	1	n/a	n/a	n/a	n/a	n/a	n/a	n/a	n/a
2024.7814	1	80	n/a	n/a	1	n/a	n/a	n/a	n/a	n/a	n/a	n/a	n/a
2024.9896	1	30	n/a	n/a	1	n/a	n/a	n/a	n/a	n/a	n/a	n/a	n/a
2026.9532	1	10	1537.7	1537.7	1	0	1	0	0	0	0.4	0.4	27
2028.463	1	20	n/a	n/a	1	n/a	n/a	n/a	n/a	n/a	n/a	n/a	n/a
2030.3876	1	80	n/a	n/a	1	n/a	n/a	n/a	n/a	n/a	n/a	n/a	n/a
2030.485	1	80	n/a	n/a	1	n/a	n/a	n/a	n/a	n/a	n/a	n/a	n/a
2030.6868	1	31	n/a	n/a	1	n/a	n/a	n/a	n/a	n/a	n/a	n/a	n/a
2032.6508	1	10	807.9	807.9	1	0	1	0	0	0	0.1	0.1	28
2033.4462	1	20	n/a	n/a	1	n/a	n/a	n/a	n/a	n/a	n/a	n/a	n/a
2035.1282	1	80	n/a	n/a	1	n/a	n/a	n/a	n/a	n/a	n/a	n/a	n/a
2035.2258	1	80	n/a	n/a	1	n/a	n/a	n/a	n/a	n/a	n/a	n/a	n/a
2035.4266	1	31	n/a	n/a	1	n/a	n/a	n/a	n/a	n/a	n/a	n/a	n/a
2037.3906	1	10	837.4	837.4	1	0	1	0	0	0	0.2	0.2	29
2038.218	1	20	n/a	n/a	1	n/a	n/a	n/a	n/a	n/a	n/a	n/a	n/a
2039.2198	1	80	n/a	n/a	1	n/a	n/a	n/a	n/a	n/a	n/a	n/a	n/a
2039.3174	1	80	n/a	n/a	1	n/a	n/a	n/a	n/a	n/a	n/a	n/a	n/a
2039.5172	1	31	n/a	n/a	1	n/a	n/a	n/a	n/a	n/a	n/a	n/a	n/a
2041.4814	1	10	941.6	941.6	1	0	1	0	0	0	0.1	0.1	30
2042.4072	1	20	n/a	n/a	1	n/a	n/a	n/a	n/a	n/a	n/a	n/a	n/a
2043.3828	1	80	n/a	n/a	1	n/a	n/a	n/a	n/a	n/a	n/a	n/a	n/a
2043.4804	1	80	n/a	n/a	1	n/a	n/a	n/a	n/a	n/a	n/a	n/a	n/a
2043.689	1	31	n/a	n/a	1	n/a	n/a	n/a	n/a	n/a	n/a	n/a	n/a
2054.435	1	10	1610.1	1610.1	1	0	1	0	0.5	0.70273	0.4	0.50273	31
2056.0096	1	20	n/a	n/a	1	n/a	n/a	n/a	n/a	n/a	n/a	n/a	n/a
2057.3468	1	80	n/a	n/a	1	n/a	n/a	n/a	n/a	n/a	n/a	n/a	n/a
2057.4444	1	80	n/a	n/a	1	n/a	n/a	n/a	n/a	n/a	n/a	n/a	n/a
2057.6488	1	31	n/a	n/a	1	n/a	n/a	n/a	n/a	n/a	n/a	n/a	n/a
2059.6142	1	40	n/a	n/a	1	n/a	n/a	n/a	n/a	n/a	n/a	n/a	n/a
2061.579	1	10	869	869	1	0	1	0	0.4	0.82153	0.1	0.047685	32
2062.439	1	20	n/a	n/a	1	n/a	n/a	n/a	n/a	n/a	n/a	n/a	n/a
2064.109	1	80	n/a	n/a	1	n/a	n/a	n/a	n/a	n/a	n/a	n/a	n/a
2064.2066	1	80	n/a	n/a	1	n/a	n/a	n/a	n/a	n/a	n/a	n/a	n/a
2064.4034	1	31	n/a	n/a	1	n/a	n/a	n/a	n/a	n/a	n/a	n/a	n/a
2066.3672	1	40	n/a	n/a	1	n/a	n/a	n/a	n/a	n/a	n/a	n/a	n/a
2068.3308	1	10	863.9	863.9	1	0	1	0	0.8	0.81376	0.2	0.25502	33
2069.1754	1	20	n/a	n/a	1	n/a	n/a	n/a	n/a	n/a	n/a	n/a	n/a
2070.4452	1	80	n/a	n/a	1	n/a	n/a	n/a	n/a	n/a	n/a	n/a	n/a
2070.5428	1	80	n/a	n/a	1	n/a	n/a	n/a	n/a	n/a	n/a	n/a	n/a
2070.7498	1	30	n/a	n/a	1	n/a	n/a	n/a	n/a	n/a	n/a	n/a	n/a
2072.7142	1	40	n/a	n/a	1	n/a	n/a	n/a	n/a	n/a	n/a	n/a	n/a
2074.6784	1	10	1211.5	1211.5	1	0	1	0	0.8	0.03681	0.8	0.14724	34
2075.8636	1	20	n/a	n/a	1	n/a	n/a	n/a	n/a	n/a	n/a	n/a	n/a
2076.9106	1	80	n/a	n/a	1	n/a	n/a	n/a	n/a	n/a	n/a	n/a	n/a
2077.0082	1	80	n/a	n/a	1	n/a	n/a	n/a	n/a	n/a	n/a	n/a	n/a
2077.212	1	31	n/a	n/a	1	n/a	n/a	n/a	n/a	n/a	n/a	n/a	n/a
2079.1772	1	40	n/a	n/a	1	n/a	n/a	n/a	n/a	n/a	n/a	n/a	n/a
2081.1412	1	10	1458.4	1458.4	1	0	1	0	0.4	0.096265	0.8	0.73084	35
2082.5694	1	20	n/a	n/a	1	n/a	n/a	n/a	n/a	n/a	n/a	n/a	n/a
2084.2538	1	80	n/a	n/a	1	n/a	n/a	n/a	n/a	n/a	n/a	n/a	n/a
2084.351	1	80	n/a	n/a	1	n/a	n/a	n/a	n/a	n/a	n/a	n/a	n/a
2084.55	1	31	n/a	n/a	1	n/a	n/a	n/a	n/a	n/a	n/a	n/a	n/a
2086.5136	1	40	n/a	n/a	1	n/a	n/a	n/a	n/a	n/a	n/a	n/a	n/a
2088.478	1	10	741.3	741.3	1	0	1	0	0.4	0.18285	0.5	0.28856	36
2089.2086	1	20	n/a	n/a	1	n/a	n/a	n/a	n/a	n/a	n/a	n/a	n/a
2091.146	1	80	n/a	n/a	1	n/a	n/a	n/a	n/a	n/a	n/a	n/a	n/a
2091.2436	1	80	n/a	n/a	1	n/a	n/a	n/a	n/a	n/a	n/a	n/a	n/a
2091.4484	1	31	n/a	n/a	1	n/a	n/a	n/a	n/a	n/a	n/a	n/a	n/a
2093.4128	1	40	n/a	n/a	1	n/a	n/a	n/a	n/a	n/a	n/a	n/a	n/a
2095.377	1	10	1818.2	1818.2	1	0	1	0	0.8	0.086655	0.1	0.0625	37
2097.1632	1	20	n/a	n/a	1	n/a	n/a	n/a	n/a	n/a	n/a	n/a	n/a
2098.3102	1	80	n/a	n/a	1	n/a	n/a	n/a	n/a	n/a	n/a	n/a	n/a
2098.4076	1	80	n/a	n/a	1	n/a	n/a	n/a	n/a	n/a	n/a	n/a	n/a
2098.608	1	30	n/a	n/a	1	n/a	n/a	n/a	n/a	n/a	n/a	n/a	n/a
2100.572	1	40	n/a	n/a	1	n/a	n/a	n/a	n/a	n/a	n/a	n/a	n/a
2102.5356	1	10	2180.5	2180.5	1	0	1	0	0.8	0.88535	0.1	0.0625	38
2104.6624	1	20	n/a	n/a	1	n/a	n/a	n/a	n/a	n/a	n/a	n/a	n/a
2105.6618	1	80	n/a	n/a	1	n/a	n/a	n/a	n/a	n/a	n/a	n/a	n/a
2105.759	1	80	n/a	n/a	1	n/a	n/a	n/a	n/a	n/a	n/a	n/a	n/a
2105.961	1	30	n/a	n/a	1	n/a	n/a	n/a	n/a	n/a	n/a	n/a	n/a
2107.9252	1	40	n/a	n/a	1	n/a	n/a	n/a	n/a	n/a	n/a	n/a	n/a
2109.8892	1	10	1046.8	1046.8	1	0	1	0	0.5	0.28529	0.8	0.88529	39
2110.912	1	20	n/a	n/a	1	n/a	n/a	n/a	n/a	n/a	n/a	n/a	n/a
2112.6252	1	80	n/a	n/a	1	n/a	n/a	n/a	n/a	n/a	n/a	n/a	n/a
2112.7226	1	80	n/a	n/a	1	n/a	n/a	n/a	n/a	n/a	n/a	n/a	n/a
2112.9258	1	30	n/a	n/a	1	n/a	n/a	n/a	n/a	n/a	n/a	n/a	n/a
2114.8904	1	40	n/a	n/a	1	n/a	n/a	n/a	n/a	n/a	n/a	n/a	n/a
2116.8548	1	10	1001.1	1001.1	1	0	1	0	0.7	0.83351	0.3	0.61153	40
2117.845	1	20	n/a	n/a	1	n/a	n/a	n/a	n/a	n/a	n/a	n/a	n/a
2119.4944	1	80	n/a	n/a	1	n/a	n/a	n/a	n/a	n/a	n/a	n/a	n/a
2119.5918	1	80	n/a	n/a	1	n/a	n/a	n/a	n/a	n/a	n/a	n/a	n/a
2119.7934	1	31	n/a	n/a	1	n/a	n/a	n/a	n/a	n/a	n/a	n/a	n/a
2121.757	1	40	n/a	n/a	1	n/a	n/a	n/a	n/a	n/a	n/a	n/a	n/a
