onset	duration	value	response	rt	good	a	bias	p	pv	ronda
3.9431	1	9	-99	-99	1	n/a	n/a	n/a	n/a	n/a
4.9575	1	10	2	2392.7	1	0	0	0.3	0.3	1
7.3521	1	20	-99	-99	1	n/a	n/a	n/a	n/a	n/a
10.944	1	31	-99	-99	1	n/a	n/a	n/a	n/a	n/a
14.9516	1	9	-99	-99	1	n/a	n/a	n/a	n/a	n/a
15.966	1	10	2	3492.7	1	0	0	0.4	0.4	2
19.4747	1	20	-99	-99	1	n/a	n/a	n/a	n/a	n/a
22.4347	1	31	-99	-99	1	n/a	n/a	n/a	n/a	n/a
26.4423	1	9	-99	-99	1	n/a	n/a	n/a	n/a	n/a
27.4566	1	10	1	2295.5	1	0	0	0.7	0.7	3
29.7681	1	20	-99	-99	1	n/a	n/a	n/a	n/a	n/a
34.2579	1	30	-99	-99	1	n/a	n/a	n/a	n/a	n/a
38.2655	1	9	-99	-99	1	n/a	n/a	n/a	n/a	n/a
39.2799	1	10	2	2523.9	1	0	0	0.4	0.4	4
41.8075	1	20	-99	-99	1	n/a	n/a	n/a	n/a	n/a
44.5347	1	30	-99	-99	1	n/a	n/a	n/a	n/a	n/a
48.5423	1	9	-99	-99	1	n/a	n/a	n/a	n/a	n/a
49.5566	1	10	2	4529.4	1	0.7	0.93927	0.3	0.85831	1
54.0964	1	20	-99	-99	1	n/a	n/a	n/a	n/a	n/a
58.0375	1	31	-99	-99	1	n/a	n/a	n/a	n/a	n/a
62.0451	1	40	-99	-99	1	n/a	n/a	n/a	n/a	n/a
67.0504	1	9	-99	-99	1	n/a	n/a	n/a	n/a	n/a
68.0648	1	10	2	2746.2	1	0.7	0.84865	0.3	0.64686	2
70.8252	1	20	-99	-99	1	n/a	n/a	n/a	n/a	n/a
73.7852	1	30	-99	-99	1	n/a	n/a	n/a	n/a	n/a
77.7928	1	40	-99	-99	1	n/a	n/a	n/a	n/a	n/a
79.8049	1	9	-99	-99	1	n/a	n/a	n/a	n/a	n/a
80.8193	1	10	2	1982.4	1	0.5	0.38725	0.4	0.18725	3
82.8148	1	20	-99	-99	1	n/a	n/a	n/a	n/a	n/a
87.1383	1	31	-99	-99	1	n/a	n/a	n/a	n/a	n/a
91.1459	1	40	-99	-99	1	n/a	n/a	n/a	n/a	n/a
93.158	1	9	-99	-99	1	n/a	n/a	n/a	n/a	n/a
94.1724	1	10	2	1259	1	0.6	0.89841	0.1	0.097622	4
95.4362	1	20	-99	-99	1	n/a	n/a	n/a	n/a	n/a
99.0447	1	31	-99	-99	1	n/a	n/a	n/a	n/a	n/a
103.0523	1	40	-99	-99	1	n/a	n/a	n/a	n/a	n/a
105.0644	1	9	-99	-99	1	n/a	n/a	n/a	n/a	n/a
106.0788	1	10	2	1832.5	1	0	0	0.1	0.1	1
107.9246	1	20	-99	-99	1	n/a	n/a	n/a	n/a	n/a
111.0343	1	31	-99	-99	1	n/a	n/a	n/a	n/a	n/a
115.0419	1	9	-99	-99	1	n/a	n/a	n/a	n/a	n/a
116.0562	1	10	2	1325.5	1	0	0	0.1	0.1	2
117.3865	1	20	-99	-99	1	n/a	n/a	n/a	n/a	n/a
120.8288	1	31	-99	-99	1	n/a	n/a	n/a	n/a	n/a
127.8462	1	9	-99	-99	1	n/a	n/a	n/a	n/a	n/a
128.8606	1	10	2	1005.4	1	0	0	0.1	0.1	3
129.875	1	20	-99	-99	1	n/a	n/a	n/a	n/a	n/a
132.9015	1	30	-99	-99	1	n/a	n/a	n/a	n/a	n/a
136.9091	1	9	-99	-99	1	n/a	n/a	n/a	n/a	n/a
137.9234	1	10	1	958.5	1	0	0	0.9	0.9	4
138.8879	1	20	-99	-99	1	n/a	n/a	n/a	n/a	n/a
143.3778	1	31	-99	-99	1	n/a	n/a	n/a	n/a	n/a
147.3854	1	9	-99	-99	1	n/a	n/a	n/a	n/a	n/a
148.3997	1	10	1	3051.4	1	0.7	0.93113	0.9	0.95833	1
151.4595	1	20	-99	-99	1	n/a	n/a	n/a	n/a	n/a
155.0514	1	31	-99	-99	1	n/a	n/a	n/a	n/a	n/a
159.059	1	40	-99	-99	1	n/a	n/a	n/a	n/a	n/a
161.0711	1	9	-99	-99	1	n/a	n/a	n/a	n/a	n/a
162.0855	1	10	1	2141.1	1	0.7	0.79755	0.4	0.86094	2
164.2306	1	20	-99	-99	1	n/a	n/a	n/a	n/a	n/a
167.8391	1	31	-99	-99	1	n/a	n/a	n/a	n/a	n/a
171.8467	1	40	-99	-99	1	n/a	n/a	n/a	n/a	n/a
173.8588	1	9	-99	-99	1	n/a	n/a	n/a	n/a	n/a
174.8732	1	10	1	4050.2	1	0.5	0.83922	0.4	0.63922	3
178.9307	1	20	-99	-99	1	n/a	n/a	n/a	n/a	n/a
182.8551	1	30	-99	-99	1	n/a	n/a	n/a	n/a	n/a
186.8628	1	40	-99	-99	1	n/a	n/a	n/a	n/a	n/a
191.8847	1	9	-99	-99	1	n/a	n/a	n/a	n/a	n/a
192.8991	1	10	2	1901.6	1	0.7	0.58781	0.1	0.041667	4
194.8114	1	20	-99	-99	1	n/a	n/a	n/a	n/a	n/a
197.6218	1	31	-99	-99	1	n/a	n/a	n/a	n/a	n/a
201.6293	1	40	-99	-99	1	n/a	n/a	n/a	n/a	n/a
203.6415	1	9	-99	-99	1	n/a	n/a	n/a	n/a	n/a
204.6558	1	10	1	1990.5	1	0	0	0.7	0.7	1
206.6513	1	20	-99	-99	1	n/a	n/a	n/a	n/a	n/a
209.2621	1	31	-99	-99	1	n/a	n/a	n/a	n/a	n/a
213.2863	1	9	-99	-99	1	n/a	n/a	n/a	n/a	n/a
214.3007	1	10	1	1871.3	1	0	0	0.8	0.8	2
216.1798	1	20	-99	-99	1	n/a	n/a	n/a	n/a	n/a
219.489	1	31	-99	-99	1	n/a	n/a	n/a	n/a	n/a
223.5132	1	9	-99	-99	1	n/a	n/a	n/a	n/a	n/a
224.5276	1	10	1	1913.5	1	0	0	0.4	0.4	3
226.4565	1	20	-99	-99	1	n/a	n/a	n/a	n/a	n/a
229.9652	1	30	-99	-99	1	n/a	n/a	n/a	n/a	n/a
233.9895	1	9	-99	-99	1	n/a	n/a	n/a	n/a	n/a
235.0039	1	10	2	1195.2	1	0	0	0.4	0.4	4
236.2011	1	20	-99	-99	1	n/a	n/a	n/a	n/a	n/a
239.3939	1	31	-99	-99	1	n/a	n/a	n/a	n/a	n/a
246.4114	1	9	-99	-99	1	n/a	n/a	n/a	n/a	n/a
247.4258	1	10	2	1377.8	1	0.8	0.96546	0.1	0.36183	1
248.806	1	20	-99	-99	1	n/a	n/a	n/a	n/a	n/a
252.9134	1	30	-99	-99	1	n/a	n/a	n/a	n/a	n/a
256.921	1	40	-99	-99	1	n/a	n/a	n/a	n/a	n/a
258.9331	1	9	-99	-99	1	n/a	n/a	n/a	n/a	n/a
259.9474	1	10	2	1329.2	1	0.4	0.40051	0.1	0.020833	2
261.2944	1	20	-99	-99	1	n/a	n/a	n/a	n/a	n/a
263.9551	1	31	-99	-99	1	n/a	n/a	n/a	n/a	n/a
267.9626	1	40	-99	-99	1	n/a	n/a	n/a	n/a	n/a
269.9747	1	9	-99	-99	1	n/a	n/a	n/a	n/a	n/a
270.9891	1	10	2	3386.3	1	0.6	0.89259	0.2	0.33888	3
274.3815	1	20	-99	-99	1	n/a	n/a	n/a	n/a	n/a
278.4389	1	31	-99	-99	1	n/a	n/a	n/a	n/a	n/a
282.4465	1	40	-99	-99	1	n/a	n/a	n/a	n/a	n/a
284.4587	1	9	-99	-99	1	n/a	n/a	n/a	n/a	n/a
285.473	1	10	2	1896.3	1	0.7	0.46875	0.1	0.041667	4
287.3854	1	20	-99	-99	1	n/a	n/a	n/a	n/a	n/a
290.5283	1	31	-99	-99	1	n/a	n/a	n/a	n/a	n/a
294.5359	1	40	-99	-99	1	n/a	n/a	n/a	n/a	n/a
296.548	1	9	-99	-99	1	n/a	n/a	n/a	n/a	n/a
297.5624	1	10	2	1289.7	1	0	0	0.4	0.4	1
298.8594	1	20	-99	-99	1	n/a	n/a	n/a	n/a	n/a
303.2994	1	31	-99	-99	1	n/a	n/a	n/a	n/a	n/a
310.3168	1	9	-99	-99	1	n/a	n/a	n/a	n/a	n/a
311.3312	1	10	1	1080.5	1	0	0	0.8	0.8	2
312.4287	1	20	-99	-99	1	n/a	n/a	n/a	n/a	n/a
315.3388	1	31	-99	-99	1	n/a	n/a	n/a	n/a	n/a
319.3631	1	9	-99	-99	1	n/a	n/a	n/a	n/a	n/a
320.3774	1	10	2	1160.2	1	0	0	0.2	0.2	3
321.5415	1	20	-99	-99	1	n/a	n/a	n/a	n/a	n/a
324.0857	1	31	-99	-99	1	n/a	n/a	n/a	n/a	n/a
328.1099	1	9	-99	-99	1	n/a	n/a	n/a	n/a	n/a
329.1243	1	10	2	1055.8	1	0	0	0.2	0.2	4
330.1886	1	20	-99	-99	1	n/a	n/a	n/a	n/a	n/a
334.113	1	31	-99	-99	1	n/a	n/a	n/a	n/a	n/a
338.1373	1	9	-99	-99	1	n/a	n/a	n/a	n/a	n/a
339.1516	1	10	2	1330.9	1	0.7	0.59157	0.4	0.38034	1
340.4986	1	20	-99	-99	1	n/a	n/a	n/a	n/a	n/a
343.5084	1	31	-99	-99	1	n/a	n/a	n/a	n/a	n/a
347.516	1	40	-99	-99	1	n/a	n/a	n/a	n/a	n/a
349.5282	1	9	-99	-99	1	n/a	n/a	n/a	n/a	n/a
350.5425	1	10	1	1895.8	1	0.5	0.83099	0.4	0.63099	2
352.4549	1	20	-99	-99	1	n/a	n/a	n/a	n/a	n/a
355.7474	1	31	-99	-99	1	n/a	n/a	n/a	n/a	n/a
359.755	1	40	-99	-99	1	n/a	n/a	n/a	n/a	n/a
364.777	1	9	-99	-99	1	n/a	n/a	n/a	n/a	n/a
365.7914	1	10	1	1209.5	1	0.6	0.60991	0.6	0.91487	3
367.0053	1	20	-99	-99	1	n/a	n/a	n/a	n/a	n/a
370.8632	1	31	-99	-99	1	n/a	n/a	n/a	n/a	n/a
374.8708	1	40	-99	-99	1	n/a	n/a	n/a	n/a	n/a
376.883	1	9	-99	-99	1	n/a	n/a	n/a	n/a	n/a
377.8973	1	10	1	952.1	1	0.4	0.076797	0.9	0.88453	4
378.8618	1	20	-99	-99	1	n/a	n/a	n/a	n/a	n/a
381.5225	1	31	-99	-99	1	n/a	n/a	n/a	n/a	n/a
385.5301	1	40	-99	-99	1	n/a	n/a	n/a	n/a	n/a
387.5422	1	9	-99	-99	1	n/a	n/a	n/a	n/a	n/a
388.5565	1	10	2	977.6	1	0	0	0.1	0.1	1
389.5377	1	20	-99	-99	1	n/a	n/a	n/a	n/a	n/a
392.7304	1	31	-99	-99	1	n/a	n/a	n/a	n/a	n/a
396.7547	1	9	-99	-99	1	n/a	n/a	n/a	n/a	n/a
397.769	1	10	1	2498.4	1	0	0	0.5	0.5	2
400.28	1	20	-99	-99	1	n/a	n/a	n/a	n/a	n/a
403.5393	1	31	-99	-99	1	n/a	n/a	n/a	n/a	n/a
407.5636	1	9	-99	-99	1	n/a	n/a	n/a	n/a	n/a
408.5779	1	10	2	829.5	1	0	0	0.1	0.1	3
409.4094	1	20	-99	-99	1	n/a	n/a	n/a	n/a	n/a
413.866	1	31	-99	-99	1	n/a	n/a	n/a	n/a	n/a
420.8834	1	9	-99	-99	1	n/a	n/a	n/a	n/a	n/a
421.8978	1	10	2	1141	1	0	0	0.4	0.4	4
423.0452	1	20	-99	-99	1	n/a	n/a	n/a	n/a	n/a
427.3022	1	30	-99	-99	1	n/a	n/a	n/a	n/a	n/a
431.3265	1	9	-99	-99	1	n/a	n/a	n/a	n/a	n/a
432.3408	1	10	1	4211.6	1	0.7	0.56231	0.2	0.041667	1
436.5646	1	20	-99	-99	1	n/a	n/a	n/a	n/a	n/a
439.4914	1	30	-99	-99	1	n/a	n/a	n/a	n/a	n/a
443.4989	1	40	-99	-99	1	n/a	n/a	n/a	n/a	n/a
445.5277	1	9	-99	-99	1	n/a	n/a	n/a	n/a	n/a
446.5421	1	10	1	1687.5	1	0.8	0.14204	0.9	0.9375	2
448.2382	1	20	-99	-99	1	n/a	n/a	n/a	n/a	n/a
452.329	1	31	-99	-99	1	n/a	n/a	n/a	n/a	n/a
456.3366	1	40	-99	-99	1	n/a	n/a	n/a	n/a	n/a
458.3653	1	9	-99	-99	1	n/a	n/a	n/a	n/a	n/a
459.3797	1	10	1	1460.2	1	0.5	0.14849	0.9	0.94849	3
460.8431	1	20	-99	-99	1	n/a	n/a	n/a	n/a	n/a
463.9527	1	30	-99	-99	1	n/a	n/a	n/a	n/a	n/a
467.9603	1	40	-99	-99	1	n/a	n/a	n/a	n/a	n/a
469.989	1	9	-99	-99	1	n/a	n/a	n/a	n/a	n/a
471.0034	1	10	1	2629	1	0.8	0.90205	0.4	0.9375	4
473.6474	1	20	-99	-99	1	n/a	n/a	n/a	n/a	n/a
477.1063	1	30	-99	-99	1	n/a	n/a	n/a	n/a	n/a
481.1139	1	40	-99	-99	1	n/a	n/a	n/a	n/a	n/a
